"Time (s)","Linear Acceleration x (m/s^2)","Linear Acceleration y (m/s^2)","Linear Acceleration z (m/s^2)","Absolute acceleration (m/s^2)"
2.339961800E-2,-6.465495825E-1,-1.515511423E-2,1.636362076E-1,6.671078238E-1
3.339961800E-2,-6.247526407E-1,-6.731777638E-2,1.591272354E-1,6.482044602E-1
4.339961800E-2,-5.930885077E-1,-1.298390478E-1,1.531038284E-1,6.261413087E-1
5.339961800E-2,-5.576668978E-1,-1.959497929E-1,1.469287872E-1,6.090786146E-1
6.339961800E-2,-5.381529331E-1,-1.564551741E-1,1.429262161E-1,5.783724615E-1
7.339961800E-2,-5.204021931E-1,-1.169369668E-1,1.394500732E-1,5.513066476E-1
8.339961800E-2,-5.003329515E-1,-8.655665815E-2,1.357440948E-1,5.255964010E-1
9.339961800E-2,-4.785363674E-1,-6.912818551E-2,1.318368912E-1,5.011553919E-1
1.033996180E-1,-4.572530985E-1,-6.619359553E-2,1.280612946E-1,4.794389255E-1
1.133996180E-1,-4.374912977E-1,-7.554843277E-2,1.245794296E-1,4.611141242E-1
1.233997290E-1,-4.202940464E-1,-9.374810755E-2,1.215925217E-1,4.474600926E-1
1.333997290E-1,-4.058511257E-1,-1.173185110E-1,1.191587448E-1,4.389505391E-1
1.433982740E-1,-3.929098845E-1,-1.427108049E-1,1.170692444E-1,4.341080040E-1
1.533982740E-1,-3.811410666E-1,-1.683833003E-1,1.152639389E-1,4.323276813E-1
1.633982740E-1,-3.690879345E-1,-1.921560168E-1,1.134729385E-1,4.313072524E-1
1.733982740E-1,-3.578401804E-1,-2.147621214E-1,1.118745804E-1,4.320743978E-1
1.833965400E-1,-3.479409218E-1,-2.360159159E-1,1.105422974E-1,4.347251972E-1
1.933965400E-1,-3.381469250E-1,-2.560568452E-1,1.092634201E-1,4.380033628E-1
2.033965400E-1,-3.302730322E-1,-2.746335566E-1,1.083211899E-1,4.429868467E-1
2.133965400E-1,-3.249517679E-1,-2.919460237E-1,1.078071594E-1,4.499427918E-1
2.233965400E-1,-3.220740557E-1,-3.087558150E-1,1.077127457E-1,4.589813572E-1
2.333965400E-1,-3.200788498E-1,-3.263592124E-1,1.078090668E-1,4.696632842E-1
2.433965400E-1,-1.540757656E0,1.873304129E0,3.137760162E-1,2.445742812E0
2.533965400E-1,-1.497447014E0,1.830563426E0,2.493028641E-1,2.378121514E0
2.633965400E-1,-1.504326105E0,1.819322824E0,1.250724792E-1,2.364016856E0
2.733965400E-1,-1.533269048E0,1.825313330E0,5.572605133E-2,2.384489068E0
2.833965400E-1,-1.624753356E0,1.807734966E0,-9.407997131E-3,2.430600273E0
2.933965400E-1,-1.688898563E0,1.781291962E0,-5.136585236E-2,2.455202204E0
3.033965400E-1,-1.717639685E0,1.735671639E0,-1.054801941E-1,2.444170247E0
3.133965400E-1,-1.727795005E0,1.729028821E0,-2.408256531E-1,2.456178584E0
3.233965400E-1,-1.713445783E0,1.780902505E0,-2.585172653E-1,2.484822199E0
3.333965400E-1,-1.598752260E0,1.865387917E0,-2.733955383E-1,2.471927586E0
3.433957060E-1,-1.539085507E0,1.880096197E0,-2.732200623E-1,2.445034787E0
3.533957060E-1,-1.491618633E0,1.901399374E0,-1.957130432E-1,2.424571987E0
3.633957060E-1,-1.475710154E0,1.808073282E0,-4.845142365E-2,2.334351514E0
3.733957390E-1,-1.471111178E0,1.711825609E0,1.253337860E-1,2.260580362E0
3.833948720E-1,-1.418105006E0,1.576274633E0,2.179470062E-1,2.131470015E0
3.933948720E-1,-1.297927141E0,1.498302221E0,1.719207764E-1,1.989743994E0
4.033948720E-1,-1.225617766E0,1.454724789E0,5.448627472E-2,1.902979736E0
4.133948720E-1,-1.094813347E0,1.483573914E0,-1.058874130E-1,1.846840536E0
4.233948380E-1,-1.085413694E0,1.487682104E0,-3.499755859E-1,1.874514295E0
4.333948380E-1,-1.099812984E0,1.514419556E0,-5.534286499E-1,1.951752664E0
4.433953710E-1,-1.159535050E0,1.477040052E0,-7.254629135E-1,2.013073592E0
4.533953710E-1,-1.223425388E0,1.419049978E0,-8.468923569E-1,2.056136957E0
4.633953710E-1,-1.218157172E0,1.358576059E0,-8.987388611E-1,2.034051953E0
4.733953710E-1,-1.125796556E0,1.316029906E0,-9.817161560E-1,1.990758451E0
4.833962370E-1,-1.079705477E0,1.289480448E0,-1.071911812E0,1.994371749E0
4.933962370E-1,-1.038918614E0,1.239494085E0,-1.133462906E0,1.974952059E0
5.033962700E-1,-9.994663596E-1,1.165587783E0,-1.293196678E0,2.007457479E0
5.133962700E-1,-1.057668447E0,1.135010362E0,-1.488590240E0,2.150072550E0
5.233962700E-1,-1.102794170E0,1.111620784E0,-1.726904869E0,2.331106213E0
5.333962700E-1,-1.135562778E0,1.069281936E0,-2.025197029E0,2.556225672E0
5.433955700E-1,-1.199105501E0,1.066859365E0,-2.347708225E0,2.843901689E0
5.533955700E-1,-1.225991845E0,1.024085522E0,-2.598746777E0,3.050457665E0
5.633955700E-1,-1.240740895E0,1.138092160E0,-2.895987511E0,3.349841100E0
5.733955700E-1,-1.152574182E0,1.092267752E0,-3.055942535E0,3.443872946E0
5.833947030E-1,-1.132272959E0,1.104648232E0,-3.203035355E0,3.572355701E0
5.933947030E-1,-1.132132530E0,1.051664114E0,-3.083535194E0,3.449044907E0
6.033947030E-1,-1.079634190E0,9.421162605E-1,-3.130439281E0,3.442795830E0
6.133947030E-1,-9.475283027E-1,8.470028639E-1,-3.048617363E0,3.302921671E0
6.233947360E-1,-7.950860262E-1,7.728461027E-1,-2.904718876E0,3.109154971E0
6.333947360E-1,-7.267752886E-1,7.417798042E-1,-2.894459248E0,3.075115272E0
6.433955690E-1,-6.257006526E-1,7.910398245E-1,-2.751395702E0,2.930430620E0
6.533955690E-1,-5.290610790E-1,8.056727648E-1,-3.040254116E0,3.189382279E0
6.633955690E-1,-4.612997174E-1,8.394126892E-1,-3.399396896E0,3.531757403E0
6.733955350E-1,-4.782535732E-1,8.258233666E-1,-3.556803703E0,3.682602788E0
6.833964010E-1,-5.985525846E-1,8.660697937E-1,-3.709848881E0,3.856335152E0
6.933964010E-1,-7.996201515E-1,8.962788582E-1,-3.878539085E0,4.060267678E0
7.033964010E-1,-9.228254557E-1,8.328085542E-1,-3.670865536E0,3.875620040E0
7.133964010E-1,-9.724820852E-1,7.109024525E-1,-3.667396545E0,3.860168536E0
7.233964010E-1,-6.631181836E-1,3.540458083E-1,-3.829827309E0,3.902902942E0
7.333964010E-1,-5.743128061E-1,1.893852353E-1,-2.112949371E0,2.197784569E0
7.433955340E-1,-6.368424892E-1,4.953616858E-1,-2.463338375E0,2.592100983E0
7.533955340E-1,-6.069194674E-1,6.741576791E-1,-2.947227478E0,3.083664966E0
7.633955340E-1,-6.824802160E-1,4.925200343E-1,-2.936521530E0,3.054752678E0
7.733955340E-1,-7.393531799E-1,6.296226978E-1,-3.044721127E0,3.195840203E0
7.833955670E-1,-7.852791548E-1,6.391524076E-1,-3.274099350E0,3.427084140E0
7.933955670E-1,-7.666314840E-1,6.413706541E-1,-3.275263786E0,3.424387977E0
8.033955330E-1,-6.424112916E-1,4.429478943E-1,-3.987051487E0,4.062693031E0
8.133955330E-1,-7.149555683E-1,4.611778855E-1,-4.071572304E0,4.159512896E0
8.233955330E-1,-7.815819383E-1,3.309241235E-1,-4.125511169E0,4.211914471E0
8.333955330E-1,-7.900458574E-1,1.448890865E-1,-3.675077438E0,3.761829273E0
8.433962330E-1,-8.476512432E-1,-7.118076086E-2,-3.737720966E0,3.833293278E0
8.533962330E-1,-7.992906570E-1,-2.065804303E-1,-3.740723133E0,3.830737604E0
8.633962330E-1,-6.307507753E-1,-2.612304688E-1,-3.515974998E0,3.581643211E0
8.733962660E-1,-4.632878304E-1,-2.082520127E-1,-3.376421928E0,3.414414965E0
8.833971320E-1,-3.650112152E-1,-1.896052063E-1,-3.377167702E0,3.402123603E0
8.933971320E-1,-5.413132906E-1,-1.015769839E-1,-2.240030766E0,2.306745715E0
9.033971320E-1,-7.321308851E-1,6.991332769E-2,-1.677596092E0,1.831729280E0
9.133971320E-1,-8.967808485E-1,1.270540953E-1,-1.537242889E0,1.784229339E0
9.233970980E-1,-8.955345750E-1,2.074766159E-2,-1.514948845E0,1.759966660E0
9.333970980E-1,-9.217135310E-1,2.343952656E-3,-1.806625843E0,2.028166232E0
9.433971310E-1,-9.105376601E-1,-1.634002477E-1,-2.069478512E0,2.266830338E0
9.533971310E-1,-8.802902699E-1,-3.203864992E-1,-2.418128014E0,2.593241516E0
9.633971310E-1,-4.416021407E-1,-4.012141526E-1,-2.459862232E0,2.531186964E0
9.733971310E-1,-2.752287090E-1,-2.951513231E-1,-2.462884903E0,2.495729791E0
9.833962970E-1,-5.941995382E-1,-3.431950808E-1,-1.740069389E0,1.870480536E0
9.933962970E-1,-8.840641379E-1,-2.743255496E-1,-6.840705872E-1,1.150989346E0
1.003396297E0,-1.422952294E0,-3.246794939E-1,-4.680395126E-1,1.532733177E0
1.013396297E0,-1.845304489E0,-4.858570099E-1,-2.513103485E-1,1.924672072E0
1.023396297E0,-1.980876446E0,-8.043813705E-1,-1.675577164E-1,2.144522434E0
1.033396297E0,-1.550031066E0,-5.720572472E-1,3.245477676E-1,1.683798400E0
1.043397163E0,-1.064362049E0,-1.737450957E-1,1.165390968E0,1.587825569E0
1.053397163E0,-7.711919546E-1,1.362812519E-2,2.252983093E0,2.381355827E0
1.063397163E0,-9.107915163E-1,3.278283477E-1,3.564683914E0,3.693776390E0
1.073397163E0,-1.293070197E0,6.563774943E-1,5.078559875E0,5.281536931E0
1.083397129E0,-1.087392092E0,9.723412991E-1,6.022785187E0,6.196919442E0
1.093397129E0,-5.677964091E-1,7.752959728E-1,6.576243401E0,6.646085605E0
1.103397129E0,2.173590660E-2,1.988227963E-1,6.601850510E0,6.604879492E0
1.113397129E0,7.393360138E-1,1.028167009E-1,7.757388115E0,7.793218807E0
1.123397162E0,9.366747141E-1,3.018269539E-1,7.534446716E0,7.598443680E0
1.133397162E0,6.073510647E-1,2.214308977E-1,7.492872238E0,7.520707502E0
1.143396328E0,-1.095304489E-1,3.011748791E-1,8.164278030E0,8.170565402E0
1.153396328E0,-9.511266947E-1,3.740428686E-1,7.778773308E0,7.845627077E0
1.163396328E0,-1.463179827E0,3.088426590E-2,7.301692009E0,7.446915820E0
1.173396294E0,-1.931946993E0,2.646183968E-2,8.238750458E0,8.462276793E0
1.183395494E0,-1.816273451E0,-1.721343994E-1,8.783033371E0,8.970515854E0
1.193395494E0,-1.391705275E0,-1.164271832E-1,8.605500221E0,8.718086540E0
1.203395494E0,-1.070539951E0,-6.903243065E-2,7.669852257E0,7.744511276E0
1.213395494E0,-8.521757126E-1,-4.970734119E-1,7.423240662E0,7.488510355E0
1.223395494E0,-9.001061916E-1,-4.477596283E-1,7.499567986E0,7.566650501E0
1.233395494E0,-1.021760941E0,-4.254736900E-1,7.212062836E0,7.296497353E0
1.243395460E0,-9.701944590E-1,-3.730359077E-1,7.495819092E0,7.567544974E0
1.253395460E0,-7.894239426E-1,-6.691408157E-2,7.585924149E0,7.627182497E0
1.263395460E0,-7.697285414E-1,2.793645859E-1,7.740932465E0,7.784122431E0
1.273395460E0,-6.201992035E-1,2.212316990E-1,7.822225571E0,7.849891935E0
1.283396293E0,-7.966812849E-1,4.798924923E-1,7.800711632E0,7.855959511E0
1.293396293E0,-8.412157297E-1,4.438574314E-1,7.464458466E0,7.524811859E0
1.303396293E0,-7.958494425E-1,4.860553741E-1,6.814970016E0,6.878476756E0
1.313396293E0,-9.043200016E-1,6.273202896E-1,6.484201431E0,6.576944094E0
1.323396293E0,-9.183491468E-1,8.495721817E-1,6.326872826E0,6.449376543E0
1.333396293E0,-9.724011421E-1,1.123713255E0,5.980904579E0,6.162752230E0
1.343396326E0,-1.007047176E0,1.315986872E0,5.753462791E0,5.987344950E0
1.353396326E0,-9.490110874E-1,1.558577299E0,5.622427940E0,5.911131972E0
1.363396326E0,-8.365252018E-1,1.770442486E0,5.582365036E0,5.915829646E0
1.373396359E0,-4.990266562E-1,1.765225887E0,5.828554153E0,6.110408624E0
1.383395525E0,-8.560848236E-2,1.804230809E0,5.849982262E0,6.122488880E0
1.393395525E0,4.145820141E-1,1.787377715E0,5.280233383E0,5.589942927E0
1.403395525E0,6.426064968E-1,1.811402082E0,5.274483681E0,5.613759766E0
1.413395525E0,5.352292061E-1,1.838654637E0,5.245363235E0,5.583991104E0
1.423395491E0,3.513312340E-1,1.734320164E0,4.976253510E0,5.281514845E0
1.433395491E0,1.076805592E-1,1.687327623E0,4.480441093E0,4.788843493E0
1.443396324E0,-2.432470322E-1,1.605996132E0,3.811858177E0,4.143507627E0
1.456924076E0,-5.045794249E-1,1.472608328E0,3.905359268E0,4.204165398E0
1.466924076E0,-4.330878258E-1,1.414384127E0,3.873697281E0,4.146513975E0
1.476924076E0,-9.701139927E-1,1.454353809E0,3.561567307E0,3.967496420E0
1.486924876E0,-1.037193179E0,1.343546391E0,3.121796608E0,3.553378766E0
1.496924876E0,-1.215540886E0,1.349598050E0,2.946369171E0,3.461220281E0
1.506924909E0,-1.155217528E0,1.239782810E0,2.037606239E0,2.650175115E0
1.516924909E0,-1.042654753E0,1.135827541E0,8.227491379E-1,1.747612452E0
1.526924909E0,-1.027112246E0,1.217535377E0,2.533655167E-1,1.612930886E0
1.536924909E0,-9.992192984E-1,1.325211763E0,-1.558036804E-1,1.667003363E0
1.546924909E0,-1.079058409E0,1.547508359E0,-5.482378006E-1,1.964615447E0
1.556924909E0,-1.408536673E0,1.632422447E0,-2.058925629E-1,2.165910975E0
1.566924909E0,-1.380224109E0,1.397441149E0,-7.925386429E-1,2.118012714E0
1.576924909E0,-1.149983644E0,1.054251909E0,-2.164789200E0,2.668374365E0
1.586924042E0,-9.575952888E-1,9.061890841E-1,-3.105998039E0,3.374224535E0
1.596924042E0,-1.122532606E0,1.137714982E0,-3.881437302E0,4.197621989E0
1.606924042E0,-1.537889838E0,1.334516287E0,-4.329422474E0,4.784342989E0
1.616924042E0,-1.750047922E0,1.434188843E0,-4.568761826E0,5.098347770E0
1.626924075E0,-1.652818441E0,1.784079194E0,-5.048807621E0,5.604034775E0
1.636924075E0,-1.672588944E0,1.665058970E0,-4.788547993E0,5.338554770E0
1.646924041E0,-1.953882456E0,2.003359079E0,-4.223963737E0,5.066850492E0
1.656924041E0,-2.126072168E0,1.907189488E0,-3.652904510E0,4.636945759E0
1.666924041E0,-1.993190169E0,1.857554555E0,-3.591733456E0,4.508199773E0
1.676924007E0,-1.722874284E0,1.916547537E0,-3.828895092E0,4.615396828E0
1.686924840E0,-1.516837239E0,2.088156939E0,-3.991951942E0,4.753617036E0
1.696924840E0,-1.130959988E0,2.343391895E0,-2.095007420E0,3.340600568E0
1.706924840E0,-1.003274560E0,2.722379208E0,-2.638282776E-1,2.913333787E0
1.716924840E0,-1.020254612E0,2.838656664E0,6.426086426E-1,3.084126618E0
1.726924840E0,-7.756444216E-1,2.673148632E0,8.459329605E-1,2.909115063E0
1.736924840E0,-3.444538116E-1,2.497102737E0,1.572256088E-1,2.525646531E0
1.746924840E0,-2.611253262E-1,2.663825035E0,-2.914237976E-2,2.676751675E0
1.756924806E0,-9.705681801E-1,2.949147463E0,1.287117958E0,3.360973964E0
1.766924806E0,-1.577402830E0,3.380542040E0,1.938276291E0,4.203948043E0
1.776924806E0,-1.523440003E0,3.386576653E0,2.961236000E0,4.749598879E0
1.786923972E0,-1.350695491E0,3.074268818E0,3.597835541E0,4.921374569E0
1.796923972E0,-1.397204757E0,2.348872423E0,3.981142998E0,4.828962866E0
1.806923938E0,-1.343739271E0,2.466904640E0,4.397112846E0,5.217840082E0
1.816923938E0,-1.258437634E0,2.361086369E0,3.533437729E0,4.432107433E0
1.826923938E0,-1.275007963E0,2.082370758E0,2.756731987E0,3.682592094E0
1.836923938E0,-1.834031582E0,2.296274185E0,3.387430191E0,4.484554635E0
1.846923938E0,-2.299700737E0,2.849338531E0,3.577773094E0,5.119356782E0
1.856923938E0,-2.295791149E0,3.198095798E0,3.826607704E0,5.490118419E0
1.866923938E0,-1.647779584E0,3.149655819E0,4.466301918E0,5.708183788E0
1.876923971E0,-9.217811227E-1,3.241740465E0,4.448051453E0,5.580656181E0
1.886924837E0,-4.217769504E-1,3.548867226E0,4.340465546E0,5.622454583E0
1.896924837E0,-2.594259977E-1,3.745523691E0,4.304117203E0,5.711538713E0
1.906924837E0,-8.857079744E-1,4.353566170E0,3.825397491E0,5.862736816E0
1.916924837E0,-1.624007583E0,4.973656654E0,3.749684334E0,6.436986387E0
1.926924803E0,-1.578215003E0,4.895911217E0,3.739044189E0,6.359336498E0
1.936924803E0,-2.891124964E0,6.710446358E0,5.382667542E0,9.075340420E0
1.946923969E0,-2.162075043E0,6.627749443E0,7.151638985E0,9.987370592E0
1.956923969E0,-6.585808396E-1,5.736235619E0,9.552848816E0,1.116221521E1
1.966923969E0,9.788239002E-2,3.595065117E0,1.122762585E1,1.178955709E1
1.976923969E0,4.468990564E-1,2.636813641E0,1.221346378E1,1.250284778E1
1.986924002E0,8.003011942E-1,1.972421408E0,9.557653427E0,9.791816340E0
1.996924002E0,9.807268381E-1,9.469932914E-1,5.905186653E0,6.060515723E0
2.006924002E0,-5.182733536E-1,1.575574994E0,2.062090874E0,2.646367813E0
2.016924002E0,-4.170974493E-1,1.291174293E0,-1.227334976E0,1.829604460E0
2.026924002E0,-6.711850166E-1,6.642338037E-1,-3.923584461E0,4.035617784E0
2.036924002E0,-1.014274120E0,-2.595979273E-1,-6.306235313E0,6.392554020E0
2.046924002E0,-1.234827280E0,-1.496774912E0,-7.919934750E0,8.154170711E0
2.056924002E0,-1.787566781E0,-9.959771633E-1,-8.396916389E0,8.642659912E0
2.066924002E0,-2.171056032E0,-1.462053299E0,-8.747791290E0,9.130987712E0
2.076924002E0,-2.098239422E0,-1.626441717E0,-8.745918274E0,9.139967603E0
2.086924835E0,-1.758041501E0,-1.374254704E0,-9.240954399E0,9.506551642E0
2.096924835E0,-1.789322138E0,-1.625283003E0,-9.185334206E0,9.498083124E0
2.106924835E0,-1.961575031E0,-1.793246150E0,-9.418874741E0,9.786659784E0
2.116924835E0,-1.933547854E0,-1.960090637E0,-9.471183777E0,9.863259337E0
2.126924868E0,-1.906488299E0,-2.021536350E0,-9.547021866E0,9.943185272E0
2.136924868E0,-1.865857601E0,-2.221549511E0,-9.630779266E0,1.005826109E1
2.146924034E0,-1.841812491E0,-2.334829807E0,-9.670142174E0,1.011708224E1
2.156924034E0,-1.836966753E0,-2.476730824E0,-9.703848839E0,1.018200986E1
2.166924034E0,-1.811841488E0,-2.618401051E0,-9.672387123E0,1.018301853E1
2.176924000E0,-1.843514919E0,-2.766036987E0,-9.669171333E0,1.022459692E1
2.186923133E0,-1.832568645E0,-2.906255484E0,-9.624940872E0,1.021979039E1
2.196923133E0,-1.808330417E0,-3.017742395E0,-9.578288078E0,1.020394191E1
2.206923133E0,-1.792250156E0,-3.148157120E0,-9.524491310E0,1.019014174E1
2.216923133E0,-1.729872823E0,-3.282399416E0,-9.492378235E0,1.019175404E1
2.226923133E0,-1.685316563E0,-3.392231941E0,-9.429162025E0,1.016152675E1
2.236923133E0,-1.615894794E0,-3.484734535E0,-9.385010719E0,1.014065663E1
2.246923966E0,-1.548489332E0,-3.614848852E0,-9.319089890E0,1.011485975E1
2.256923966E0,-1.432517052E0,-3.711667776E0,-9.257308960E0,1.007602858E1
2.266923966E0,-1.354684711E0,-3.818622828E0,-9.187311172E0,1.004110241E1
2.276923966E0,-1.236683726E0,-3.930988550E0,-9.135410309E0,1.002186505E1
2.286923932E0,-1.109863043E0,-4.020995140E0,-9.067098618E0,9.980604953E0
2.296923932E0,-9.991006255E-1,-4.117197990E0,-8.991705894E0,9.939833814E0
2.306923932E0,-8.692959547E-1,-4.229007244E0,-8.954507828E0,9.940995331E0
2.316923932E0,-7.400152087E-1,-4.332872868E0,-8.883269310E0,9.911300794E0
2.326923932E0,-6.019597650E-1,-4.443456650E0,-8.813529015E0,9.888627622E0
2.336923932E0,-4.444253743E-1,-4.538615704E0,-8.757305145E0,9.873547479E0
2.346923598E0,-3.071004152E-1,-4.639197350E0,-8.678898811E0,9.845798459E0
2.356923598E0,-1.591855586E-1,-4.755146980E0,-8.601993561E0,9.830109667E0
2.366923598E0,-1.930236816E-3,-4.852338791E0,-8.519710541E0,9.804624581E0
2.376923631E0,1.300146282E-1,-4.961585045E0,-8.449069023E0,9.799030427E0
2.386922797E0,1.177433848E0,-3.271345615E0,-8.064023972E0,8.781602087E0
2.396922797E0,-3.886111450E1,1.235382938E1,5.054738998E1,6.494491477E1
2.406922797E0,-3.212821198E1,3.086386299E1,6.910361481E1,8.221988581E1
2.416922797E0,-1.016783953E0,5.407532120E1,6.627751160E1,8.554462435E1
2.426922763E0,-6.611527205E-1,1.319475365E1,4.428649139E1,4.621506212E1
2.436922763E0,-3.336534500E0,-1.534772396E0,3.874945641E-1,3.692985353E0
2.446923596E0,-2.547655821E0,-1.537852383E1,-1.302227402E1,2.031179869E1
2.456923596E0,-4.211943150E0,-1.021354866E1,-2.100509644E1,2.373333347E1
2.466923596E0,-9.684572220E0,-9.411522865E0,-2.312017250E1,2.677517653E1
2.476923596E0,-1.744207382E1,-3.477853298E0,-2.931795311E1,3.429087017E1
2.486924462E0,-1.991248894E1,-3.148155212E0,-1.711857796E1,2.644737810E1
2.496924462E0,-2.204853630E1,-4.635319710E0,-8.892240524E0,2.422181008E1
2.506924495E0,-2.399254036E1,-4.934627056E0,-6.734232426E0,2.540359076E1
2.516924495E0,-2.493816376E1,-6.298628807E0,-6.610112667E0,2.655707676E1
2.526924495E0,-2.964797974E1,-1.371915102E0,8.108430862E0,3.076737728E1
2.536924495E0,-2.226118469E1,-6.913415909E0,-4.907310009E0,2.382094362E1
2.546924495E0,-1.810206223E1,-4.543576241E0,-7.363629818E0,2.006369323E1
2.556924495E0,-2.260984039E1,-4.591170311E0,-6.878396988E0,2.407480161E1
2.566924495E0,-5.966675186E1,3.149161339E0,8.556177139E0,6.035931297E1
2.576924495E0,-4.469308090E1,1.417746258E1,-2.535650635E1,5.330501233E1
2.586923628E0,-1.467533302E1,1.103713226E1,-2.050025368E1,2.752170214E1
2.596923628E0,-1.577408314E0,8.866059303E0,-1.384267616E1,1.651408211E1
2.606923628E0,4.700146675E0,-1.469832420E1,2.881923676E0,1.569833103E1
2.616923628E0,1.846252060E1,-1.225290298E1,1.655115509E1,2.765753122E1
2.626923628E0,1.150301361E1,-3.733017921E0,-2.247128487E-1,1.209567033E1
2.636923628E0,6.805110931E0,4.601612091E0,-8.877386093E0,1.209513755E1
2.646923961E0,5.738676071E0,7.053924561E0,-8.980512619E0,1.278044841E1
2.656923961E0,7.276849747E0,3.046874523E0,-6.286605835E0,1.008748727E1
2.666923994E0,1.012958336E1,2.028180122E0,-3.909767389E0,1.104573468E1
2.676923960E0,1.092988586E1,2.849717140E-1,-3.011765957E0,1.134082660E1
2.686924793E0,1.132790852E1,9.269738197E-2,-2.640406609E0,1.163193239E1
2.696924793E0,1.034578133E1,2.892758846E-1,-3.628846884E0,1.096756133E1
2.706924793E0,9.306612015E0,9.640135765E-1,-4.557221889E0,1.040723886E1
2.716924793E0,7.758495808E0,1.847643852E0,-5.341393471E0,9.598881665E0
2.726924793E0,6.240374565E0,2.828418255E0,-7.763488770E0,1.035441850E1
2.736924793E0,4.971558571E0,3.278223038E0,-1.097168827E1,1.248363266E1
2.746924793E0,3.864072084E0,3.241975784E0,-1.449509621E1,1.534761461E1
2.756924793E0,2.862177134E0,3.165541172E0,-1.558514690E1,1.615888340E1
2.766924793E0,2.160428047E0,3.447094202E0,-1.352131081E1,1.412004794E1
2.776924793E0,1.624685049E0,3.980072260E0,-9.716362000E0,1.062488904E1
2.786923959E0,1.640705109E0,1.419339657E0,-4.835224628E0,5.299607110E0
2.796923959E0,-1.418639755E1,-7.463880539E0,1.360930824E1,2.102799703E1
2.806923925E0,-5.523060226E1,-7.917701721E0,3.513088989E1,6.593397343E1
2.816923925E0,-3.007444000E1,-3.969987869E1,3.839973450E1,6.288952154E1
2.826923925E0,-1.829012680E1,-3.740446472E1,1.283010101E1,4.356872974E1
2.836923925E0,-8.707040787E0,-1.821109390E1,6.467616081E0,2.119638078E1
2.846923925E0,-1.029020500E1,-1.482349205E1,-6.037177086E0,1.902818285E1
2.856923925E0,-7.316669464E0,-1.030203152E1,6.452579498E0,1.418806849E1
2.866923925E0,-8.661899567E0,-1.088755798E1,8.370628357E0,1.623683596E1
2.876923958E0,-1.353237438E1,-5.707936764E0,5.633326530E0,1.573022779E1
2.886924824E0,-1.679965973E1,-2.326319218E0,8.712846756E0,1.906709277E1
2.896924824E0,-1.627485466E1,-2.859032154E0,3.713051796E0,1.693610678E1
2.906924824E0,-1.572138214E1,1.788813591E1,5.666071415E0,2.447961658E1
2.916924824E0,-1.734959030E1,1.157990646E1,9.573914528E0,2.295130403E1
2.926924824E0,-1.373925591E1,1.132160664E0,9.933585167E0,1.699191145E1
2.936924824E0,5.759222984E0,-9.934372902E0,3.853071976E1,4.020543221E1
2.946923957E0,-2.262115479E-3,-1.510767841E1,3.071504593E1,3.422946097E1
2.956923957E0,-1.813161087E1,2.995268822E0,1.080291462E1,2.131736176E1
2.966923923E0,-1.890114975E1,7.499397278E0,2.964651108E0,2.054953960E1
2.976923923E0,-1.217039394E1,2.519491196E0,3.989478588E0,1.305305574E1
2.986923056E0,-9.564080238E0,-3.578559160E0,1.454297924E1,1.777008615E1
2.996923056E0,4.302969933E0,5.638078308E1,-5.622712708E1,7.974207215E1
3.006923056E0,-3.480739117E0,4.189564896E1,7.541423798E1,8.634042064E1
3.016923056E0,-3.845365524E1,1.363133049E1,-1.124766445E1,4.232028743E1
3.026923056E0,-2.306296539E1,-8.454428673E0,6.402126312E0,2.538434475E1
3.036923056E0,-1.198663902E1,-1.365295219E1,5.679441452E0,1.903519566E1
3.046923056E0,1.612385559E1,-3.231296539E1,3.912091827E1,5.324051745E1
3.056923056E0,6.197324276E0,-3.390241241E1,3.299692154E1,4.771349104E1
3.066923056E0,-6.979594231E0,-1.873080444E1,8.477686882E0,2.171241455E1
3.076923056E0,-1.337141418E1,-1.502756977E1,-9.141125679E0,2.209485798E1
3.086923889E0,-1.369822693E1,-1.433497715E1,-2.457152748E1,3.157361167E1
3.096923889E0,-1.209230423E1,-1.100410557E1,-4.404942322E1,4.698580474E1
3.106923889E0,-7.636097908E0,-1.730955124E0,-4.027116013E1,4.102526703E1
3.116923889E0,-5.695176125E0,7.532041550E0,-1.759647179E1,1.997004007E1
3.126923922E0,-4.320680618E0,9.312065125E0,-7.538284302E0,1.273611275E1
3.136923922E0,-4.662972927E0,9.673091888E0,-9.098048210E0,1.407432075E1
3.146923655E0,-6.605537891E0,-3.995086670E1,1.174089622E1,4.216104274E1
3.156923655E0,-2.796524811E1,1.001960564E1,-7.033827782E0,3.052740297E1
3.166923655E0,-4.311611557E1,7.067054272E0,1.579646683E1,4.645934828E1
3.176923621E0,-5.260482788E1,2.157696724E0,-6.141218662E0,5.300601983E1
3.186922754E0,-3.716220093E1,5.456068993E0,-1.801873207E0,3.760378457E1
3.196922754E0,-2.929526138E1,1.184270859E1,-3.997723818E0,3.185033566E1
3.206922754E0,-2.164145660E1,5.747314453E0,-9.919407368E-1,2.241357209E1
3.216922754E0,-5.692964554E0,-7.168317795E0,7.591359138E0,1.189215536E1
3.226922754E0,-1.556857824E0,-3.332612038E0,5.044852257E0,6.243448051E0
3.236922754E0,-9.810410500E0,1.657509422E1,1.735009193E1,2.592303209E1
3.246923620E0,-6.709777355E0,1.518386459E1,-4.330542564E0,1.715588689E1
3.256923620E0,-6.618371964E0,1.666291809E1,-6.057855606E0,1.892493861E1
3.266923620E0,-2.865338326E-1,9.989737511E0,1.346725583E0,1.008417706E1
3.276923620E0,1.930918694E-1,9.743307114E0,1.867747545E0,9.922590331E0
3.286924486E0,-9.291547775E0,1.054709530E1,1.811375380E0,1.417233785E1
3.296924486E0,-1.728247643E0,5.517863274E0,4.662080288E0,7.427560005E0
3.306924486E0,7.503509521E-3,-2.243710518E0,-5.905413628E-1,2.320136266E0
3.316924486E0,-1.633955956E0,9.798688889E-1,1.375713348E0,2.350009004E0
3.326924486E0,9.170212746E-1,-1.853689194E0,2.108053684E0,2.953130878E0
3.336924486E0,9.517512321E-1,-2.138953209E0,-3.681330681E-1,2.369909955E0
3.346923652E0,2.179387569E0,-6.074483871E0,-3.403995991E0,7.296319153E0
3.356923652E0,2.819287539E0,-9.609008789E0,-2.431453228E0,1.030501805E1
3.366923652E0,8.535737991E-1,-8.027283669E0,7.468461990E-2,8.072883569E0
3.376923685E0,-1.188162327E0,-6.534007072E0,4.998301029E0,8.311918630E0
3.386922851E0,-1.091948867E0,-6.484058857E0,4.804366112E0,8.143543782E0
3.396922851E0,2.695793509E-1,-7.196441174E0,4.384122372E0,8.431012250E0
3.406922851E0,1.910477728E-1,-7.339737892E0,4.136606216E0,8.427322384E0
3.416922851E0,-9.196250439E-1,-7.616391182E0,5.281062126E0,9.313685739E0
3.426922817E0,-1.804613471E0,-8.393762589E0,5.843248367E0,1.038534697E1
3.436922817E0,-2.599243402E0,-8.684620857E0,6.305852413E0,1.104275692E1
3.446923083E0,-2.934607029E0,-8.557975769E0,6.202222347E0,1.096897578E1
3.456923083E0,-3.931815863E0,-8.087165833E0,6.236341476E0,1.094318885E1
3.466923083E0,-1.525553608E1,-2.024963188E1,6.342334747E-1,2.536101781E1
3.476923083E0,-2.125473404E1,-1.602009201E1,4.914811611E0,2.706589072E1
3.486923949E0,-2.686023521E1,-1.383086967E1,1.357220078E1,3.312053480E1
3.496923949E0,-2.224809265E1,-7.046439171E0,1.515313911E1,2.782530425E1
3.506923982E0,-1.547032547E1,3.689122200E0,3.112890625E1,3.495639279E1
3.516923982E0,-1.347511005E1,-8.601589203E-1,1.232882500E1,1.828437557E1
3.526923982E0,-2.328151321E1,-3.087056160E1,1.038319016E1,4.003537272E1
3.536923982E0,-2.357351875E1,-1.762635422E1,-5.049395561E0,2.986462029E1
3.546923982E0,-1.964983749E1,-1.038437748E1,-3.420557022E0,2.248669872E1
3.556923982E0,-1.877249527E1,-1.007773018E1,-2.414908886E0,2.144292445E1
3.566923982E0,-1.548878098E1,-6.808234215E0,-2.626523972E-1,1.692109262E1
3.576923982E0,1.312337756E0,1.303463459E0,1.343729973E1,1.356400646E1
3.586923115E0,1.123456955E0,1.285383701E0,1.337315845E1,1.348168142E1
3.596923115E0,-1.297668934E0,-1.121885872E1,9.597175598E0,1.482067863E1
3.606923115E0,2.037026215E1,9.119211197E0,-1.928746033E1,2.949769006E1
3.616923115E0,9.090112686E0,2.782526016E1,-1.572300339E1,3.322782098E1
3.626923148E0,1.036893845E1,1.608548546E1,-1.352722168E0,1.918560878E1
3.636923148E0,5.719049454E0,-2.383594036E0,-3.348685265E0,7.042921282E0
3.646923981E0,-2.906829596E0,-7.302028179E0,-2.096863747E0,8.134255430E0
3.656923981E0,4.165301323E0,-1.142251587E1,-2.250424385E0,1.236478927E1
3.666923981E0,2.158901691E0,-5.541198254E0,-2.202230453E0,6.341573430E0
3.676923947E0,-1.484917402E0,-6.216354847E0,-2.132344723E0,6.737576812E0
3.686924780E0,-1.713785410E0,-5.932950020E0,-2.114520550E0,6.527492131E0
3.696924780E0,-1.875414848E0,-5.825341225E0,-2.070566654E0,6.460574859E0
3.706924780E0,-1.687673688E0,-5.943373203E0,-1.888813972E0,6.460614966E0
3.716924780E0,-1.811430216E0,-5.742111206E0,-1.886060715E0,6.309544005E0
3.726924780E0,-2.049709797E0,-5.580073833E0,-2.302913666E0,6.375103575E0
3.736924780E0,-2.522301674E0,-5.427527905E0,-2.420352459E0,6.455863297E0
3.746924013E0,-2.098415852E0,-5.757505894E0,-2.297887802E0,6.544655190E0
3.756924013E0,-1.588747740E0,-5.976117134E0,-1.955555439E0,6.485544885E0
3.766924013E0,-1.894738555E0,-5.661119461E0,-1.994009495E0,6.293995679E0
3.776924013E0,-1.831708908E0,-5.945085049E0,-2.212259769E0,6.602521264E0
3.786923179E0,-1.756634712E0,-5.821870327E0,-2.159842968E0,6.453282983E0
3.796923179E0,-1.897134066E0,-5.750855923E0,-2.047240734E0,6.392390486E0
3.806923145E0,-1.927237749E0,-5.682271957E0,-2.001687527E0,6.325283622E0
3.816923145E0,-1.866094828E0,-5.666454315E0,-2.056708336E0,6.310393299E0
3.826923145E0,-1.723961353E0,-5.717717648E0,-1.975388527E0,6.290190591E0
3.836923145E0,-2.111213207E0,-5.740413189E0,-2.401834488E0,6.571025315E0
3.846923145E0,-1.663859367E0,-5.587489605E0,-2.009124756E0,6.166445521E0
3.856922878E0,-1.861213326E0,-5.616212845E0,-2.107678413E0,6.280785784E0
3.866922878E0,-2.477678776E0,-5.853784561E0,-2.672490120E0,6.895497752E0
3.876922911E0,-2.567941189E0,-5.667928219E0,-2.285312176E0,6.628905187E0
3.886923777E0,-1.718371391E0,-5.723537922E0,-2.030894756E0,6.311594101E0
3.896923777E0,-1.335515976E-1,-5.357493877E0,-1.204438210E0,5.492836069E0
3.906923777E0,-1.844536543E0,-5.623297215E0,-1.984182835E0,6.241856146E0
3.916923777E0,-1.795633316E0,-5.674363613E0,-2.063262939E0,6.299186882E0
3.926923743E0,-1.700684071E0,-5.665810585E0,-1.912561417E0,6.217043274E0
3.936923743E0,-1.886388659E0,-5.666915894E0,-2.085238457E0,6.326185054E0
3.946923743E0,-1.833201408E0,-5.629604816E0,-1.987450600E0,6.245241203E0
3.956923743E0,-1.829649210E0,-5.602387905E0,-1.946032047E0,6.206561625E0
3.966923743E0,-1.806772590E0,-5.581993580E0,-1.957455635E0,6.185039376E0
3.976923743E0,-1.743432164E0,-5.757324219E0,-2.294453621E0,6.438233864E0
3.986922909E0,-1.865377545E0,-5.865597725E0,-2.423840523E0,6.615124559E0
3.996922909E0,-1.359744191E0,-1.040742207E1,-5.466215134E0,1.183397001E1
4.006922909E0,-4.347020149E0,-7.369126797E0,-1.526543617E0,8.690854350E0
4.016922909E0,-2.231308699E0,-7.760089874E0,-1.692080498E0,8.249901198E0
4.026922909E0,-2.404509068E0,-8.974121094E0,-1.232012749E0,9.371999182E0
4.036922909E0,-3.194101334E0,-8.483868599E0,-2.138471603E0,9.314041579E0
4.046923675E0,-2.896813631E0,-5.599994183E0,-2.286927223E0,6.706824896E0
4.056923675E0,-2.508421421E0,-4.436456203E0,-2.028376579E0,5.485310677E0
4.066923675E0,-1.864175797E0,-4.398402691E0,-1.746923447E0,5.086535084E0
4.076923675E0,-1.653556585E0,-4.795735836E0,-1.840123177E0,5.396238032E0
4.086924508E0,-1.958798885E0,-5.147250175E0,-1.660457611E0,5.752234081E0
4.096924508E0,-3.452422380E0,-4.676204681E0,-1.951704979E0,6.131497602E0
4.106924508E0,-3.147254944E0,-3.032384634E0,-1.331393242E0,4.568717349E0
4.116924508E0,-2.428473473E0,-9.014720917E-1,-1.792500496E0,3.150110056E0
4.126924541E0,2.612587929E0,-5.426290989E0,-2.038700104E0,6.358187454E0
4.136924541E0,1.705815434E0,-5.116337299E0,-2.467575073E0,5.930905529E0
4.146924574E0,-2.201673985E-1,-5.306639194E0,-4.778326035E0,7.144318926E0
4.156924840E0,-1.625047922E0,-5.613495350E0,-3.459368706E0,6.791122340E0
4.166924840E0,-1.864060044E0,-6.369056702E0,-1.513884544E0,6.806720909E0
4.176924806E0,-9.345917702E-1,-8.597531319E0,8.366136551E-1,8.688551603E0
4.186924006E0,-1.458801031E-1,-1.050961685E1,-3.246316910E-1,1.051564136E1
4.196924006E0,-5.853904486E-1,-1.019655132E1,-3.667566299E0,1.085188386E1
4.206924006E0,-1.105313540E0,-8.357748032E0,-6.360762596E0,1.056091715E1
4.216924006E0,-4.345141649E-1,-2.626684904E0,-1.225219727E1,1.253812641E1
4.226924006E0,5.481236458E0,-3.314146757E0,-5.243293762E0,8.277659773E0
4.236924006E0,4.816431522E0,-2.310829163E-1,2.521873951E0,5.441622933E0
4.246924006E0,2.889594555E0,1.824054718E-1,-1.386975765E0,3.210409666E0
4.256924006E0,-3.682265282E-1,3.173346519E-1,-3.400228500E0,3.434799254E0
4.266924006E0,-8.368179321E0,-6.771650314E-1,-2.511589527E0,8.763164930E0
4.276924006E0,-5.629842758E0,-4.312228203E0,-2.135641575E0,7.406173539E0
4.286924839E0,-3.623422623E0,-6.277703762E0,-7.602491379E-1,7.288122857E0
4.296924839E0,-4.062545300E0,-7.709797859E0,-1.834829330E0,8.905720410E0
4.306924839E0,-3.298789978E0,-6.778108597E0,-5.666049004E0,9.430211174E0
4.316924839E0,-2.814794064E0,-4.117619514E0,-4.876862049E0,6.975789528E0
4.326924839E0,-3.552711010E0,-3.564839125E0,-4.796048164E0,6.952115613E0
4.336924839E0,-3.024960995E0,-4.823254108E0,-5.258491516E0,7.750219496E0
4.346924872E0,-1.856763601E0,-4.569875240E0,-5.534937382E0,7.413964028E0
4.356924872E0,-4.502073526E-1,-3.619678259E0,-6.339851379E0,7.314265026E0
4.366924872E0,1.633711696E0,-3.337293625E0,-6.423287868E0,7.420590926E0
4.376924905E0,7.361296415E-1,-2.657146931E0,-3.162815094E0,4.195916584E0
4.386924038E0,1.497627258E0,-7.401313782E-1,-5.376799583E0,5.630333527E0
4.396924038E0,1.191052675E0,-4.823222160E-1,-4.560892105E0,4.738457343E0
4.406924038E0,-8.171291351E-1,-4.022240639E-1,-5.261414528E0,5.339659826E0
4.416924038E0,-1.834095478E0,3.194732666E-1,-5.480241299E0,5.787833280E0
4.426924004E0,-2.243575096E0,-9.324261665E0,-2.158725548E1,2.362170790E1
4.436924004E0,-1.480994463E0,-1.590710163E0,8.912930489E-1,2.349065074E0
4.446923970E0,-4.745274782E-1,7.587795258E-1,-2.135197639E0,2.315165578E0
4.456923970E0,-3.172036171E0,3.665541649E0,-1.088611984E1,1.191661086E1
4.466923970E0,-3.668748856E0,4.621756554E0,-1.311896706E1,1.438497996E1
4.476923970E0,-3.015194416E0,4.092408180E0,-1.232769966E1,1.333459340E1
4.486924770E0,-2.552907228E0,3.264994621E0,-8.266808510E0,9.247575257E0
4.496924770E0,-2.845643520E0,2.537387848E0,-4.958046913E0,6.254458676E0
4.506924803E0,-3.351135731E0,1.504006386E0,-5.407788277E0,6.537302191E0
4.516924803E0,-3.188819170E0,4.636383057E-1,-8.484317780E0,9.075636416E0
4.526924803E0,-2.549198151E0,3.557949066E-1,-9.343816757E0,9.691847751E0
4.536924803E0,-1.691632748E0,4.789657593E-1,-8.601832390E0,8.779666851E0
4.546924803E0,-2.328067780E0,4.060630798E-1,-6.918239594E0,7.310733608E0
4.556924803E0,-2.421082497E0,5.365123749E-1,-5.137948036E0,5.705085101E0
4.566924803E0,-2.495891571E0,5.305633545E-1,-2.889845848E0,3.855149962E0
4.576924803E0,-2.029778957E0,2.191162109E-1,-2.708176613E0,3.391494522E0
4.586923936E0,-1.076715350E0,5.255460739E-1,-3.239975929E0,3.454411476E0
4.596923936E0,-1.312151432E0,-2.699861526E-1,-3.288231611E0,3.550647974E0
4.606923936E0,-2.038795471E0,-8.178787231E-1,-2.819145679E0,3.573960680E0
4.616923936E0,-2.084751844E0,-1.539731979E0,-2.229854107E0,3.418949277E0
4.626923969E0,-1.833356977E0,-2.815866470E0,-2.241282940E0,4.039016093E0
4.636923969E0,-1.798154831E0,-4.176415443E0,-2.062930346E0,4.993144136E0
4.646923935E0,-1.584052324E0,-5.059504986E0,-1.767991662E0,5.588703516E0
4.656923935E0,-2.259679079E0,-5.136416435E0,-2.075581551E0,5.983056252E0
4.666923935E0,-1.960753560E0,-4.913964748E0,-2.348777294E0,5.788640501E0
4.676923901E0,-8.229706287E-1,-5.256338120E0,-2.870751381E0,6.045459831E0
4.686924767E0,5.393365860E0,-7.733716488E0,-2.190400600E0,9.679701483E0
4.696924767E0,1.000822067E1,-9.451500893E0,-3.416235447E0,1.418330056E1
4.706924800E0,-9.732561707E-1,-5.654010773E0,-6.917415142E0,8.986973775E0
4.716924800E0,-4.348075390E0,-4.366954327E0,-5.741532326E0,8.422662473E0
4.726924800E0,-4.249968231E-1,-5.808073044E0,-4.397269249E0,7.297281112E0
4.736924800E0,-1.345260501E0,-5.314277172E0,-3.902370691E0,6.729024052E0
4.746924800E0,-2.510994911E0,-4.557984352E0,-2.850579262E0,5.933474440E0
4.756924800E0,-2.174901724E0,-3.399381638E0,-3.046636343E0,5.056479609E0
4.766924800E0,-7.556520700E-1,-2.595208645E0,-5.004307270E0,5.687636523E0
4.776924800E0,-3.816781938E-1,-1.192508698E0,-8.680193901E0,8.770035427E0
4.786923933E0,-7.203831673E-1,-4.029254913E-1,-1.136002445E1,1.138997175E1
4.796923933E0,-8.697267771E-1,-5.322027206E-1,-1.084441280E1,1.089224281E1
4.806923899E0,-1.189062834E0,-5.041933060E-1,-1.010010529E1,1.018234787E1
4.816923899E0,-1.824290752E0,-3.806409836E-1,-9.121564865E0,9.309987642E0
4.826923899E0,-2.048554420E0,-2.985763550E-1,-8.323548317E0,8.577131201E0
4.836923899E0,-1.864471793E0,-3.551464081E-1,-6.306733608E0,6.586142486E0
4.846923899E0,-2.265171528E0,-2.503290176E-1,-6.254522324E0,6.656779714E0
4.856923899E0,-2.925143719E0,-1.476144791E-1,-6.491033554E0,7.121219868E0
4.866923899E0,-2.783397436E0,-2.187633514E-2,-7.200354576E0,7.719642860E0
4.876923932E0,-2.117742538E0,1.387281418E-1,-7.973273277E0,8.250888783E0
4.886924798E0,-1.656736374E0,5.601692200E-1,-9.190860748E0,9.355772884E0
4.896924798E0,-1.580271959E0,7.830915451E-1,-1.024635029E1,1.039702775E1
4.906924798E0,-1.438330173E0,8.591003418E-1,-1.054022408E1,1.067254284E1
4.916924798E0,-1.632541299E0,4.969053268E-1,-9.792903900E0,9.940476487E0
4.926924764E0,-1.918183804E0,2.022571564E-1,-8.873487473E0,9.080700248E0
4.936924764E0,-2.055158615E0,1.583919525E-1,-8.370293617E0,8.620358472E0
4.946923897E0,-2.186626911E0,3.938760757E-1,-8.010811806E0,8.313217271E0
4.956923897E0,-2.296662331E0,6.074466705E-1,-7.458191395E0,7.827404947E0
4.966923897E0,-2.272084713E0,1.019060135E0,-7.279595375E0,7.693722202E0
4.976923897E0,-2.203767300E0,1.474038124E0,-6.939340115E0,7.428581286E0
4.986923063E0,-2.144219160E0,1.914699554E0,-6.536816597E0,7.140988826E0
4.996923063E0,-1.943537951E0,2.460294724E0,-6.134801388E0,6.889570230E0
5.006923029E0,-1.736729980E0,2.997106552E0,-5.899604797E0,6.841360645E0
5.016923029E0,-1.193511844E0,3.476538181E0,-5.438348770E0,6.564025106E0
5.026923029E0,-8.525824547E-1,3.785624981E0,-4.812232971E0,6.181863757E0
5.036923029E0,-6.109983921E-1,3.762794018E0,-4.362849236E0,5.793650948E0
5.046923029E0,-3.906921148E-1,3.640643120E0,-4.132539749E0,5.521304867E0
5.056923029E0,-2.885218859E-1,3.522466183E0,-4.059982300E0,5.382793806E0
5.066923029E0,-2.831247449E-1,3.720952511E0,-3.940065384E0,5.426763533E0
5.076923029E0,-3.944219351E-1,4.064311981E0,-3.727573395E0,5.528924304E0
5.086923895E0,-4.601885676E-1,4.432096958E0,-3.732752323E0,5.812804562E0
5.096923895E0,-4.933097363E-1,4.713027954E0,-3.860142231E0,6.112011538E0
5.106923895E0,-3.547117114E-1,5.043453217E0,-4.114101887E0,6.518287741E0
5.116923895E0,-2.526093125E-1,5.351171494E0,-4.187900543E0,6.799805790E0
5.126923928E0,-1.663479805E-1,5.652606010E0,-4.057378769E0,6.960025060E0
5.136923928E0,-7.536518574E-2,5.843501091E0,-3.778800011E0,6.959275424E0
5.146923061E0,-1.095944941E-1,5.852831841E0,-3.351106644E0,6.745188451E0
5.156923061E0,-4.781755060E-2,5.793644428E0,-2.925144672E0,6.490383165E0
5.166923061E0,6.326946616E-2,5.711394787E0,-2.632474422E0,6.289193511E0
5.176923027E0,3.195136189E-1,5.543969154E0,-2.582260609E0,6.124194052E0
5.186922160E0,5.857253075E-1,5.416852474E0,-2.748690605E0,6.102512999E0
5.196922160E0,6.826736927E-1,5.260519505E0,-2.775866032E0,5.987031072E0
5.206922160E0,8.471345901E-1,5.013270378E0,-2.843732834E0,5.825575794E0
5.216922160E0,9.529028535E-1,4.585099220E0,-2.875205994E0,5.495267802E0
5.226922160E0,9.760438204E-1,4.070568562E0,-2.744930267E0,5.005679986E0
5.236922160E0,9.468929172E-1,3.598536968E0,-2.329825401E0,4.390234721E0
5.246923026E0,8.361074328E-1,3.257397175E0,-1.682789803E0,3.760517719E0
5.256615842E0,5.729156733E-1,3.026938677E0,-1.187874794E0,3.301762658E0
5.266615842E0,5.585466623E-1,2.865828991E0,-9.114894867E-1,3.058719219E0
5.276615842E0,5.826070905E-1,2.811201811E0,-7.627639771E-1,2.970537919E0
5.286616675E0,6.403895020E-1,2.908271313E0,-9.977025986E-1,3.140629112E0
5.296616675E0,7.110625505E-1,3.044912815E0,-1.509941101E0,3.472322873E0
5.306616675E0,7.439736128E-1,3.165306807E0,-2.100010395E0,3.870750260E0
5.316616675E0,8.027423620E-1,3.220401287E0,-2.832609653E0,4.363376811E0
5.326616675E0,8.766427040E-1,3.148155689E0,-3.289723396E0,4.636988969E0
5.336616675E0,9.585965872E-1,3.018030643E0,-3.419967651E0,4.660857766E0
5.346615841E0,1.098792195E0,2.960933685E0,-3.495982647E0,4.711302075E0
5.356615874E0,1.320176363E0,3.041768312E0,-3.546779156E0,4.855395193E0
5.366615874E0,1.471756697E0,3.156144381E0,-3.555159569E0,4.976592678E0
5.376615907E0,1.521191597E0,3.326410532E0,-3.259057522E0,4.899029172E0
5.386616307E0,1.514216185E0,3.538065195E0,-3.077504635E0,4.927655706E0
5.396616307E0,1.335526705E0,3.932406425E0,-2.952936172E0,5.095810428E0
5.406616307E0,1.011815071E0,4.358657837E0,-2.814647198E0,5.286199649E0
5.416616307E0,8.372020721E-1,4.870413780E0,-3.028725147E0,5.796120575E0
5.426616273E0,7.031107545E-1,5.247629642E0,-3.241404057E0,6.207953113E0
5.436616273E0,5.815643072E-1,5.467269897E0,-3.293397903E0,6.409034789E0
5.446617139E0,5.541310906E-1,5.415649891E0,-3.553248405E0,6.500915262E0
5.456617139E0,6.636251211E-1,5.446100235E0,-3.595812321E0,6.559746361E0
5.466617139E0,7.241185904E-1,5.626852036E0,-3.364089489E0,6.595673556E0
5.476617139E0,6.661494970E-1,5.702595234E0,-3.059588909E0,6.505723007E0
5.486618005E0,5.678520799E-1,5.758703709E0,-2.900194645E0,6.472731523E0
5.496618005E0,4.570088983E-1,5.594092846E0,-2.711393833E0,6.233328839E0
5.506618038E0,4.045204520E-1,5.263940811E0,-2.578186989E0,5.875351718E0
5.516618038E0,3.595847189E-1,4.879700184E0,-2.648848534E0,5.563917110E0
5.526618038E0,3.210504055E-1,4.455534935E0,-2.972207546E0,5.365527245E0
5.536618038E0,2.263326645E-1,4.043009281E0,-3.409310341E0,5.293443824E0
5.546617138E0,1.078635827E-1,3.732675552E0,-3.653807640E0,5.224443664E0
5.556617138E0,-6.527245045E-3,3.599215984E0,-3.760704517E0,5.205506390E0
5.566617138E0,-1.060147583E-1,3.715359926E0,-3.716108322E0,5.255910917E0
5.576617138E0,-2.518854737E-1,4.083775520E0,-3.516870975E0,5.395280368E0
5.586616271E0,-3.591505289E-1,4.500242233E0,-3.040867329E0,5.443164830E0
5.596616271E0,-4.789292216E-1,4.555825710E0,-3.025270939E0,5.489734543E0
5.606616271E0,-3.846381903E-1,5.081067085E0,-1.859453678E0,5.424274813E0
5.616616271E0,-4.518039823E-1,5.180395126E0,-1.571060181E0,5.432204948E0
5.626616304E0,-5.597425699E-1,5.266230106E0,-1.535780907E0,5.514083267E0
5.636616304E0,-7.026971579E-1,5.381133080E0,-1.744301796E0,5.700260106E0
5.646617137E0,-8.630502820E-1,5.566265583E0,-2.075752735E0,6.003075691E0
5.656617103E0,-1.002928972E0,5.739673615E0,-2.407178402E0,6.304302307E0
5.666617103E0,-1.142965555E0,5.862645149E0,-2.633765221E0,6.527916792E0
5.676617069E0,-1.355475903E0,5.865787506E0,-2.583115578E0,6.551126932E0
5.686616669E0,-1.089782476E0,5.829329491E0,-2.965544224E0,6.630472132E0
5.696616669E0,-1.021759868E0,5.771908760E0,-2.686464310E0,6.447946530E0
5.706616669E0,-1.091899753E0,5.861761570E0,-2.426427364E0,6.437394157E0
5.716616669E0,-1.396442890E0,6.029354095E0,-2.059209347E0,6.522538362E0
5.726616669E0,-1.609749913E0,6.125399590E0,-1.754254341E0,6.571850821E0
5.736616669E0,-1.757316589E0,6.123271465E0,-1.789429188E0,6.616998704E0
5.746616669E0,-1.872835279E0,5.991914749E0,-1.921387196E0,6.565232905E0
5.756616669E0,-2.042346478E0,5.924083233E0,-2.271734715E0,6.665337193E0
5.766616669E0,-2.345407963E0,5.987189293E0,-2.693681240E0,6.971606183E0
5.776616669E0,-2.445750713E0,6.014392853E0,-2.921628475E0,7.119728287E0
5.786615935E0,-2.540729284E0,5.936727047E0,-2.953497887E0,7.100928326E0
5.796615935E0,-2.491825581E0,5.737707138E0,-2.749412537E0,6.832989626E0
5.806615901E0,-2.476422310E0,5.517509460E0,-2.419126511E0,6.513658816E0
5.816615901E0,-2.530920029E0,5.245114326E0,-1.459767818E0,6.003973898E0
5.826615901E0,-2.532512188E0,4.876495361E0,-6.015052795E-1,5.527715043E0
5.836615901E0,-2.347373486E0,5.230911732E0,-5.157051086E-1,5.756609383E0
5.846616801E0,-2.271590471E0,5.832095623E0,-7.806415558E-1,6.307365842E0
5.856616801E0,-2.298838615E0,6.360474586E0,-1.391144753E0,6.904750515E0
5.866616801E0,-2.115433931E0,6.772909164E0,-2.328744411E0,7.467958878E0
5.876616834E0,-2.115018606E0,7.057700634E0,-2.737126350E0,7.859790239E0
5.886617700E0,-2.178871393E0,7.157833576E0,-2.900755882E0,8.024739668E0
5.896617700E0,-2.817288399E0,6.978389740E0,-2.596699715E0,7.961022968E0
5.906617700E0,-2.762248993E0,7.113194466E0,-1.408298492E0,7.759565687E0
5.916617700E0,-2.699094057E0,7.023784637E0,-7.268714905E-1,7.559563580E0
5.926617666E0,-3.041620970E0,7.125498772E0,-5.884475708E-1,7.769843075E0
5.936617666E0,-3.064059734E0,7.270762920E0,-1.009747505E0,7.954372730E0
5.946617666E0,-2.879379511E0,7.459763050E0,-1.772600174E0,8.190299293E0
5.956617666E0,-2.589763165E0,7.489381790E0,-2.437640667E0,8.290947164E0
5.966617666E0,-2.343815804E0,7.331655979E0,-2.631797314E0,8.134679405E0
5.976617666E0,-2.239562035E0,6.872195244E0,-2.134333611E0,7.536450460E0
5.986616832E0,-2.147108078E0,6.088615894E0,-1.354456425E0,6.596655881E0
5.996616832E0,-1.965533972E0,5.154871941E0,-6.365776062E-1,5.553490755E0
6.006616732E0,-1.808243871E0,4.150811672E0,-5.538091660E-1,4.561325249E0
6.016616732E0,-1.905628443E0,3.210362434E0,-8.370180130E-1,3.826022200E0
6.026616732E0,-2.075670242E0,2.654464245E0,-1.080159187E0,3.538549315E0
6.036616732E0,-2.167519569E0,2.513787746E0,-1.219514847E0,3.536168319E0
6.046616732E0,-2.388234854E0,2.945242167E0,-1.506574154E0,4.080181714E0
6.056616732E0,-2.576714993E0,3.670581341E0,-1.620657921E0,4.768559492E0
6.066616732E0,-2.729892969E0,4.506036282E0,-1.633436203E0,5.515867332E0
6.076616732E0,-2.771942854E0,5.161573887E0,-1.693075657E0,6.098525835E0
6.086617465E0,-2.722494841E0,5.578744888E0,-1.773681641E0,6.456029681E0
6.096617465E0,-2.579653263E0,5.658618927E0,-1.869429111E0,6.493792753E0
6.106617465E0,-2.599915028E0,5.659907341E0,-1.670733929E0,6.448679021E0
6.116617465E0,-2.662240982E0,5.473748684E0,-1.426081181E0,6.251652520E0
6.126617498E0,-2.971462250E0,5.451478958E0,-1.246938705E0,6.332698230E0
6.136617498E0,-3.141173363E0,5.307674885E0,-1.113196373E0,6.267183494E0
6.146616664E0,-3.340919495E0,4.937553883E0,-1.197538853E0,6.080730278E0
6.156616664E0,-3.388667345E0,4.596015930E0,-1.233747005E0,5.841965464E0
6.166616664E0,-3.075652361E0,4.372382641E0,-1.139316559E0,5.465840249E0
6.176616630E0,-2.717663765E0,4.357446671E0,-9.816513062E-1,5.228448825E0
6.186615763E0,-2.551711559E0,4.423585892E0,-8.053503036E-1,5.169906492E0
6.196615763E0,-2.364478827E0,4.417250633E0,-7.713680267E-1,5.069306847E0
6.206615763E0,-2.190075397E0,4.331415653E0,-9.703330994E-1,4.949660406E0
6.216615763E0,-2.097253799E0,4.255696774E0,-1.164813042E0,4.885306331E0
6.226615763E0,-2.184617758E0,4.189819336E0,-1.169447899E0,4.867725260E0
6.236615763E0,-2.211543798E0,4.309779167E0,-1.163295746E0,4.981804837E0
6.246615763E0,-2.165941238E0,4.516020775E0,-1.245956421E0,5.161216183E0
6.256615763E0,-2.256468534E0,4.665647984E0,-1.447309494E0,5.380950299E0
6.266615763E0,-2.330265760E0,4.709833145E0,-1.739594460E0,5.535237633E0
6.276615763E0,-2.291082859E0,4.803519726E0,-1.901696682E0,5.651487653E0
6.286616596E0,-2.356060505E0,5.009493828E0,-1.948676586E0,5.868849116E0
6.296616596E0,-2.387700081E0,5.010253906E0,-1.934444904E0,5.877570329E0
6.306616696E0,-2.257318497E0,5.037757874E0,-1.675007343E0,5.768894243E0
6.316616696E0,-2.194619656E0,4.911866188E0,-1.506210327E0,5.586721260E0
6.326616696E0,-2.125749588E0,4.837470531E0,-1.345115185E0,5.452455164E0
6.336616696E0,-2.098566532E0,4.839478016E0,-1.167932987E0,5.402647168E0
6.346615862E0,-2.115705013E0,4.909779549E0,-1.016611099E0,5.442025454E0
6.356615862E0,-2.144377708E0,4.937678337E0,-9.668989182E-1,5.469361630E0
6.366615862E0,-2.147567272E0,4.906859875E0,-9.320259094E-1,5.436726158E0
6.376615895E0,-2.166646004E0,4.787789822E0,-8.929128647E-1,5.330532775E0
6.386615061E0,-2.171583652E0,4.676272392E0,-8.704624176E-1,5.228862579E0
6.396615061E0,-2.200157404E0,4.575143814E0,-7.285194397E-1,5.128681516E0
6.406615061E0,-2.247869492E0,4.537031174E0,-5.917282104E-1,5.097814375E0
6.416615061E0,-2.272174358E0,4.529951572E0,-5.731134415E-1,5.100166329E0
6.426615027E0,-2.288935184E0,4.522552013E0,-6.339035034E-1,5.108280987E0
6.436615027E0,-2.294575691E0,4.512803555E0,-7.387933731E-1,5.116276886E0
6.446615860E0,-2.261600494E0,4.509060860E0,-8.423891068E-1,5.114302107E0
6.456615860E0,-2.197597980E0,4.491737366E0,-8.750085831E-1,5.076493028E0
6.466615860E0,-2.149858475E0,4.464458466E0,-8.382492065E-1,5.025529085E0
6.476615860E0,-2.122163296E0,4.513146877E0,-7.821598053E-1,5.048152707E0
6.486616726E0,-2.081093788E0,4.544071674E0,-7.670774460E-1,5.056475704E0
6.496616726E0,-2.072264194E0,4.554099560E0,-7.644329071E-1,5.061468103E0
6.506616759E0,-2.086870670E0,4.583031178E0,-7.402572632E-1,5.089910096E0
6.516616759E0,-2.134969711E0,4.690989494E0,-7.829866409E-1,5.213112907E0
6.526616759E0,-2.139670372E0,4.781601906E0,-9.115247726E-1,5.317215766E0
6.536616759E0,-2.092201710E0,4.788748264E0,-1.068312645E0,5.333920682E0
6.546616759E0,-2.053867340E0,4.724468708E0,-1.043971062E0,5.256315364E0
6.556616759E0,-2.088707685E0,4.601812363E0,-9.033794403E-1,5.133758003E0
6.566616759E0,-2.145323277E0,4.448025703E0,-7.571029663E-1,4.996053395E0
6.576616759E0,-2.227386713E0,4.296891212E0,-6.677789688E-1,4.885739904E0
6.586615892E0,-2.356215954E0,4.240015984E0,-5.481204987E-1,4.881590442E0
6.596615892E0,-2.440253973E0,4.191097260E0,-4.734945297E-1,4.872815691E0
6.606615892E0,-2.480975628E0,4.257509708E0,-4.681529999E-1,4.949827897E0
6.616615892E0,-2.498395920E0,4.329373360E0,-6.219797134E-1,5.037093867E0
6.626615925E0,-2.500782251E0,4.438440800E0,-9.026832581E-1,5.173828917E0
6.636615925E0,-2.455335140E0,4.566035271E0,-1.119863510E0,5.303908278E0
6.646616758E0,-2.369108677E0,4.554059505E0,-1.321085930E0,5.300698250E0
6.656616758E0,-2.309945107E0,4.464070320E0,-1.411743641E0,5.220803609E0
6.666616758E0,-2.368695736E0,4.404654503E0,-1.658264637E0,5.268922317E0
6.676616724E0,-2.404370070E0,4.424829483E0,-1.431397915E0,5.235361628E0
6.686617557E0,-2.434617519E0,4.455629826E0,-1.036242485E0,5.182065042E0
6.696617557E0,-2.440619946E0,4.431271553E0,-8.262767792E-1,5.125965920E0
6.706617557E0,-2.384498119E0,4.355533600E0,-7.987899780E-1,5.029370701E0
6.716617557E0,-2.324913025E0,4.286393642E0,-7.856826782E-1,4.939199156E0
