"Time (s)","Linear Acceleration x (m/s^2)","Linear Acceleration y (m/s^2)","Linear Acceleration z (m/s^2)","Absolute acceleration (m/s^2)"
9.568833339E-3,-5.833080009E-2,-1.894556344E-2,-2.375899136E-2,6.577162217E-2
1.952083333E-2,-4.087474175E-2,-1.980218053E-2,-2.534592569E-2,5.201237176E-2
2.947283334E-2,-7.323144246E-3,-1.193416715E-2,-1.881637651E-2,2.345439857E-2
3.942483333E-2,1.723331597E-2,-2.186098516E-2,-2.651891369E-2,3.844662059E-2
4.937683334E-2,-1.987925414E-2,-3.553937674E-2,-1.267621536E-2,4.264878052E-2
5.932883333E-2,-6.381760798E-3,-1.196925044E-2,2.483308833E-2,2.829614997E-2
6.928083334E-2,-4.979295161E-2,2.573359609E-3,7.588220458E-2,9.079685667E-2
7.923283333E-2,-6.582422622E-2,3.148140907E-3,9.612709243E-2,1.165468037E-1
8.918483334E-2,-4.574508866E-2,6.142792404E-2,1.261957777E-1,1.476190275E-1
9.913683333E-2,-7.080616359E-2,1.153222954E-1,1.061444692E-1,1.719866069E-1
1.090888333E-1,-1.165362505E-1,6.439889431E-2,1.122179721E-1,1.741286551E-1
1.190408333E-1,-8.116834335E-2,-2.126515388E-2,7.744925838E-2,1.141879782E-1
1.289928333E-1,-3.248263512E-2,-9.030673742E-2,1.863270085E-2,9.776300911E-2
1.389448333E-1,3.267351016E-3,-1.325288969E-1,-4.585741002E-2,1.402764633E-1
1.488968333E-1,2.084179720E-2,-1.302671939E-1,-6.326800626E-2,1.463105018E-1
1.588488333E-1,2.100977674E-2,-1.576315784E-1,-6.499118071E-2,1.717934190E-1
1.688008333E-1,-7.419111673E-3,-1.394701266E-1,-4.155144732E-2,1.457171308E-1
1.787528333E-1,-4.741353683E-2,-1.244538921E-1,-2.923311811E-2,1.363502473E-1
1.887048333E-1,-2.258463291E-2,-1.289275968E-1,1.676042240E-2,1.319594734E-1
1.986568333E-1,2.513301395E-2,-1.201263678E-1,3.690937936E-2,1.281573834E-1
2.086088333E-1,7.868040791E-2,-8.102135897E-2,7.181137305E-2,1.338354979E-1
2.185608333E-1,8.584459925E-2,-1.881633997E-2,1.376797092E-1,1.633372346E-1
2.285128333E-1,3.447300905E-2,3.508680224E-2,1.609018896E-1,1.682524595E-1
2.384648333E-1,-7.218186725E-3,5.432063341E-3,1.478707848E-1,1.481464766E-1
2.484168333E-1,-1.529388590E-2,-9.245325029E-2,1.195357990E-1,1.518891493E-1
2.583688333E-1,-3.172516488E-3,-1.386538553E-1,-1.012679279E-2,1.390593700E-1
2.683208333E-1,2.130058436E-2,-1.747645050E-1,-6.236055493E-2,1.867757637E-1
2.782728333E-1,5.403972952E-2,-1.577040839E-1,-3.194396038E-2,1.697388790E-1
2.882248333E-1,7.255115546E-2,-1.410722637E-1,1.658383649E-2,1.594994589E-1
2.981768333E-1,5.624752851E-2,-1.393952823E-1,7.359422565E-2,1.673646893E-1
3.081288333E-1,7.721610066E-2,-9.102886856E-2,1.119788210E-1,1.636699039E-1
3.180808333E-1,1.172721957E-1,-3.411265612E-2,1.053212178E-1,1.612730607E-1
3.280328333E-1,1.509322773E-1,8.097867429E-2,7.104951739E-2,1.854349804E-1
3.379848333E-1,2.744156595E-1,2.708056068E-1,-1.123604614E-2,3.857018014E-1
3.479368333E-1,6.646360463E-1,9.105880630E-1,-2.916316348E-1,1.164457258E0
3.578888333E-1,1.238904690E0,2.296764089E0,-5.492359463E-1,2.666771501E0
3.678408333E-1,1.686774804E0,4.307484727E0,-3.822067595E-1,4.641736304E0
3.777928333E-1,1.735670099E0,6.617523165E0,2.253142691E-1,6.845066110E0
3.877448333E-1,8.532341865E-1,8.189390388E0,1.031793242E0,8.298115496E0
3.976968333E-1,-1.170870217E-2,9.708126301E0,1.726337212E0,9.860430697E0
4.076488333E-1,-3.214316040E-1,1.151366112E1,2.039470813E0,1.169731388E1
4.176008333E-1,-4.897519657E-1,1.401301252E1,1.605533736E0,1.411318942E1
4.275528333E-1,-8.495330451E-1,1.624716229E1,2.149313098E0,1.641071405E1
4.375048333E-1,-5.126380043E-1,1.838139600E1,5.453324402E0,1.918012679E1
4.474568333E-1,5.633131546E-1,1.964975999E1,6.003559089E0,2.055415070E1
4.574088333E-1,2.656999058E0,1.910382885E1,5.588183414E0,2.008092913E1
4.673608333E-1,4.286333886E0,1.814201567E1,5.289818711E0,1.937750172E1
4.773128333E-1,3.905165007E0,1.631841178E1,5.008009813E0,1.751059791E1
4.872648333E-1,3.636253606E0,1.377083956E1,4.364481046E0,1.489654515E1
4.972168333E-1,4.671416014E0,1.209344764E1,2.762564397E0,1.325539005E1
5.071688333E-1,4.722013725E0,1.091958401E1,1.348824012E0,1.197305537E1
5.171208333E-1,3.568703647E0,8.638914971E0,7.386366534E-1,9.376144288E0
5.270728333E-1,2.658214695E0,6.240223973E0,-3.454687035E-1,6.791601374E0
5.370248333E-1,2.117010593E0,3.301184176E0,-1.408775514E0,4.167037228E0
5.469768333E-1,1.631490404E0,-8.705568552E-2,-2.247235833E0,2.778382357E0
5.569288333E-1,1.035516164E0,-3.543547756E0,-3.091757376E0,4.815390753E0
5.668808333E-1,2.241592978E-1,-6.803361712E0,-3.669906671E0,7.733317072E0
5.768328333E-1,-4.278772413E-1,-9.532634402E0,-3.643072629E0,1.021401859E1
5.867848333E-1,-8.927245999E-1,-1.149860104E1,-3.464122102E0,1.204221429E1
5.967369167E-1,-8.292256652E-1,-1.186650317E1,-3.995512383E0,1.254853106E1
6.066889167E-1,-1.421665409E0,-1.221462183E1,-3.000801598E0,1.265791962E1
6.166409167E-1,-2.854094665E0,-1.279206829E1,-1.880049402E0,1.324074972E1
6.265929167E-1,-3.719921122E0,-1.220976981E1,-8.546804953E-1,1.279244975E1
6.365449167E-1,-4.239750581E0,-1.051175593E1,-1.527403826E-1,1.133560000E1
6.464969167E-1,-4.520646435E0,-9.364732189E0,-7.001146120E-1,1.042231326E1
6.564489167E-1,-4.508385701E0,-9.557920686E0,-9.869357425E-1,1.061383209E1
6.664009167E-1,-3.799016993E0,-1.005874991E1,-1.086538383E0,1.080701372E1
6.763529167E-1,-2.789467729E0,-1.083825977E1,-1.111075054E0,1.124648802E1
6.863049167E-1,-1.895456669E0,-1.172051223E1,-8.895439339E-1,1.190606783E1
6.962569167E-1,-1.720096186E0,-1.259027152E1,-1.191022280E0,1.276292294E1
7.062089167E-1,-2.247784595E0,-1.331692606E1,-5.950875092E-1,1.351840170E1
7.161609167E-1,-2.398428750E0,-1.278695314E1,-3.045996263E-1,1.301350883E1
7.261129167E-1,-2.490479420E0,-1.104720534E1,1.324264976E-1,1.132522717E1
7.360649167E-1,-3.080069669E0,-9.134362417E0,1.613693526E0,9.773812600E0
7.460169167E-1,-2.448750473E0,-6.860339904E0,1.228991175E0,7.387222874E0
7.559689167E-1,-1.050397255E0,-4.797702423E0,3.179674941E-1,4.921624352E0
7.659209167E-1,-4.691427963E-1,-3.644384744E0,3.929077488E-1,3.695404122E0
7.758729167E-1,-7.413578745E-1,-3.093488737E0,7.664530277E-1,3.272114654E0
7.858249167E-1,-8.449005885E-1,-2.954330851E0,-1.041658080E-1,3.074537087E0
7.957769167E-1,-8.921361507E-1,-3.040128801E0,-7.821446157E-1,3.263439939E0
8.057289167E-1,-1.356780757E0,-3.192166348E0,-1.392453597E0,3.737607127E0
8.156809167E-1,-1.949570749E0,-3.142172654E0,-1.877194791E0,4.147039351E0
8.256329167E-1,-1.940988645E0,-2.233346942E0,-2.152903873E0,3.659271863E0
8.355849167E-1,-1.248445738E0,-7.797817558E-1,-1.484533210E0,2.090577719E0
8.455369167E-1,-2.244268445E-1,6.709136170E-1,-4.794026864E-1,8.545872838E-1
8.554889167E-1,9.552826446E-1,1.727024260E0,1.365652299E-1,1.978339654E0
8.654409167E-1,1.615362760E0,2.078112722E0,3.619578516E-1,2.656870870E0
8.753929167E-1,1.654818017E0,1.934986331E0,4.144746190E-1,2.579609269E0
8.853449167E-1,1.248369286E0,1.705645670E0,2.666470853E-1,2.130435095E0
8.952969167E-1,6.201630011E-1,1.531179957E0,-1.276511314E-1,1.656927585E0
9.052489167E-1,1.189809896E-1,1.220517974E0,-3.612947774E-1,1.278418757E0
9.152009167E-1,2.043055887E-1,8.252263159E-1,-5.012057475E-1,9.868872516E-1
9.251529167E-1,4.863416503E-1,4.527534163E-1,-1.317926959E-1,6.774091610E-1
9.351049167E-1,4.239377528E-1,2.729831100E-2,1.654125414E-1,4.558834554E-1
9.450569167E-1,4.871810912E-1,-2.317883062E-1,3.200363121E-1,6.272913801E-1
9.550089167E-1,5.825913149E-1,-3.794000959E-1,4.865644292E-1,8.485882493E-1
9.649609167E-1,5.021998107E-1,-5.651421636E-1,3.188580982E-1,8.205247113E-1
9.749129167E-1,5.160603431E-1,-7.054934657E-1,5.169459770E-1,1.015515855E0
9.848649167E-1,5.298312303E-1,-7.450586504E-1,9.227818465E-1,1.298984165E0
9.948169167E-1,2.594676730E-1,-7.959165627E-1,1.066277635E0,1.355638094E0
1.004768917E0,-7.813992418E-2,-1.035438396E0,9.075843483E-1,1.379111261E0
1.014720917E0,-3.224379829E-1,-1.201478271E0,6.425780831E-1,1.400151021E0
1.024672917E0,-5.977957567E-1,-1.310270981E0,4.633719599E-1,1.512905609E0
1.034624917E0,-6.091748038E-1,-1.325970170E0,6.252579725E-1,1.587525863E0
1.044576917E0,-1.125286785E-1,-1.032315983E0,7.018739661E-1,1.253381848E0
1.054528917E0,3.245979443E-1,-7.558128494E-1,8.512885255E-1,1.183768999E0
1.064480917E0,5.928806603E-1,-5.007035083E-1,7.343220661E-1,1.068382131E0
1.074432917E0,7.086527163E-1,-2.683228791E-1,7.394108248E-1,1.058732359E0
1.084384917E0,5.874796603E-1,-8.721940756E-2,7.865352899E-1,9.855847699E-1
1.094336917E0,3.620299186E-1,2.124603349E-1,6.236073035E-1,7.517254318E-1
1.104288917E0,9.821717966E-2,4.799417996E-1,4.380570245E-1,6.571793531E-1
1.114240917E0,-2.042605651E-1,5.803045785E-1,1.372545801E-1,6.303289634E-1
1.124192917E0,-4.424508416E-1,6.165573156E-1,-7.143605489E-2,7.622393197E-1
1.134144917E0,-3.969334837E-1,7.023207664E-1,-1.497407792E-1,8.205077394E-1
1.144096917E0,-1.879503418E-1,7.820265019E-1,-4.257357717E-2,8.054211880E-1
1.154048917E0,-1.184539545E-1,6.452063334E-1,-1.785991091E-1,6.798677767E-1
1.164000917E0,-2.550546331E-1,4.052173072E-1,-2.826520658E-1,5.560091026E-1
1.173952917E0,-4.445186729E-1,1.823881048E-1,-4.743986392E-1,6.752157730E-1
1.183904917E0,-5.115591930E-1,5.302255154E-2,-5.386817586E-1,7.447699215E-1
1.193856917E0,-5.655488740E-1,4.460256100E-2,-4.570429337E-1,7.285074884E-1
1.203808917E0,-5.079415938E-1,7.514841557E-3,-4.787279177E-1,6.980269011E-1
1.213760917E0,-5.967195036E-1,-1.319529462E-1,-7.379010737E-1,9.581146803E-1
1.223712917E0,-5.311889903E-1,-2.754494655E-1,-1.363334463E0,1.488863664E0
1.233664917E0,-2.957964238E-1,-2.685754788E-1,-2.146813413E0,2.183674917E0
1.243616917E0,-4.032190213E-1,-3.216319442E-2,-1.004330624E0,1.082728061E0
1.253568917E0,-2.930176259E-1,2.460508347E-1,-3.799766314E-1,5.392426010E-1
1.263520917E0,-1.042226721E-1,2.913620782E-1,-2.619412279E-1,4.054225362E-1
1.273472917E0,-1.825416125E-1,1.599482453E-1,-3.146503687E-2,2.447344071E-1
1.283424917E0,-3.398477020E-1,1.967377567E-1,3.257477993E-1,5.102095983E-1
1.293376917E0,-6.066122981E-1,1.737658006E-1,2.789496088E-1,6.899173269E-1
1.303328917E0,-4.150461113E-1,1.460283637E-2,8.195572576E-2,4.233122468E-1
1.313280917E0,1.455122190E-1,-8.913027763E-2,-5.526911026E-1,5.784336325E-1
1.327630458E0,-9.302043021E-2,8.692145538E-2,-5.694131892E-2,1.394648832E-1
1.337582458E0,-1.463867980E-1,1.004491715E-1,5.191095930E-2,1.849699391E-1
1.347534458E0,-1.479006422E-1,7.873524383E-2,8.877772707E-2,1.896188899E-1
1.357486458E0,-1.615223157E-1,7.692282625E-2,3.730519932E-2,1.827519017E-1
1.367438458E0,-1.604838502E-1,1.011534686E-1,-6.700558305E-2,2.011885647E-1
1.377390458E0,-1.946678424E-1,5.537134152E-2,-1.650662766E-1,2.611674367E-1
1.387342458E0,-2.097519046E-1,6.268251725E-2,-2.143682448E-1,3.063963183E-1
1.397294458E0,-9.571892023E-2,3.458916765E-2,-8.988866150E-2,1.357884151E-1
1.407246458E0,1.529807031E-2,5.505884439E-4,5.105203986E-2,5.329770048E-2
1.417198458E0,6.235763133E-2,2.521692149E-2,1.188043123E-1,1.365241076E-1
1.427150458E0,9.536808729E-4,-4.734453969E-3,-4.231045246E-3,6.420771407E-3
1.437102458E0,-8.750650585E-2,1.160727125E-2,-1.660778815E-1,1.880797172E-1
1.447054458E0,-1.425206190E-1,2.384187564E-2,-1.858057658E-1,2.353812747E-1
1.457006458E0,-1.093610591E-1,8.457960896E-3,-1.138932359E-1,1.581235199E-1
1.466958458E0,-2.593006253E-2,2.656517979E-2,-1.133816046E-1,1.193040870E-1
1.476910458E0,4.161872685E-2,3.294430934E-2,-6.521454435E-2,8.408556795E-2
1.486862458E0,2.733222485E-2,5.230356328E-2,6.630194373E-3,5.938579565E-2
1.496814458E0,-4.596730113E-2,5.867092531E-2,-8.303101044E-2,1.115769642E-1
1.506766458E0,-4.599653721E-2,8.327710513E-2,-1.132505904E-1,1.479069096E-1
1.516718458E0,1.674642563E-2,1.040278868E-1,-7.197918814E-2,1.276058287E-1
1.526670458E0,9.451263964E-2,5.872132100E-2,-1.811888409E-1,2.126269706E-1
1.536622458E0,2.088654667E-1,4.196597837E-2,-2.347785723E-1,3.170282394E-1
1.546574458E0,2.610390025E-1,4.101423439E-2,-2.341833258E-1,3.530798186E-1
1.556526458E0,2.660524052E-1,4.217768412E-2,-2.105324714E-1,3.418870586E-1
1.566478458E0,4.300241196E-1,7.103902895E-2,-2.405024117E-1,4.978038742E-1
1.576430458E0,8.526649600E-1,7.852605969E-2,-4.583538795E-1,9.712322868E-1
1.586382458E0,1.804160728E0,1.918820827E-1,-5.419170231E-1,1.893538679E0
1.596334458E0,3.479711949E0,4.131559257E-1,-5.772687042E-1,3.551384550E0
1.606286458E0,5.502638649E0,4.728519045E-1,-3.543178797E-1,5.534271604E0
1.616238458E0,7.841733071E0,6.164144243E-1,1.925640142E-1,7.868279685E0
1.626190458E0,1.002770587E1,1.159746620E0,8.182529265E-1,1.012765694E1
1.636142458E0,1.195731160E1,2.213485412E0,1.924473038E0,1.231179982E1
1.646094458E0,1.341821855E1,2.221587607E0,3.090458125E0,1.394757943E1
1.656046458E0,1.556646453E1,2.270241850E0,2.942856860E0,1.600403769E1
1.665998458E0,1.715780064E1,1.326740394E0,2.099729294E0,1.733664402E1
1.675950458E0,1.783832182E1,-4.140766064E-2,2.910270327E-1,1.784074372E1
1.685902458E0,1.681317043E1,-5.419824388E-1,-1.141622663E0,1.686059747E1
1.695854458E0,1.534868615E1,-7.986772525E-1,-5.038323899E-1,1.537770786E1
1.705806458E0,1.440237043E1,-8.312153265E-1,-8.030092353E-1,1.444866834E1
1.715758458E0,1.284137201E1,-1.104661901E0,-1.086866412E0,1.293454258E1
1.725710458E0,1.066648378E1,-5.850543449E-1,-1.706623324E0,1.081798169E1
1.735662458E0,6.194004657E0,7.651499026E-1,-8.041827714E-1,6.292682893E0
1.745614458E0,1.973630580E0,7.654261105E-1,-8.855122787E-1,2.294608200E0
1.755566458E0,1.248363000E-1,-4.556239972E-1,-2.356683431E0,2.403566958E0
1.765518458E0,-2.460931100E0,-1.706664401E0,-3.131593872E0,4.333101134E0
1.775470458E0,-4.521406866E0,-2.450770978E0,-4.004641056E0,6.518170635E0
1.785422458E0,-5.841851417E0,-2.459827146E0,-4.049951715E0,7.521973575E0
1.795374458E0,-7.010586450E0,-1.815254943E0,-2.981161970E0,7.831398315E0
1.805326458E0,-6.511220784E0,-1.453977415E0,-5.230088818E-1,6.692053849E0
1.815278458E0,-5.558884186E0,-1.386174272E0,1.355614384E0,5.887305229E0
1.825230458E0,-5.820350620E0,-1.625149975E0,1.568975190E0,6.243338605E0
1.835182458E0,-7.484841832E0,-1.330658906E0,4.929682267E-1,7.618170912E0
1.845134458E0,-9.196119540E0,-2.154382853E-1,-3.172389311E-1,9.204111515E0
1.855086458E0,-9.106706257E0,2.104208261E-1,4.022562772E-1,9.118014361E0
1.865038458E0,-7.930024273E0,4.815714917E-1,1.673472535E0,8.118972004E0
1.874990458E0,-7.065660789E0,9.060436070E-1,2.858807228E0,7.675757694E0
1.884942458E0,-6.567282718E0,1.186777567E0,2.899972211E0,7.276502053E0
1.894894458E0,-6.625379484E0,1.281359715E0,1.659679538E0,6.949249757E0
1.904846458E0,-7.550607805E0,1.379599224E0,8.249374634E-1,7.719811790E0
1.914798458E0,-8.350572980E0,1.414270143E0,5.179165417E-1,8.485308873E0
1.924750458E0,-8.424299937E0,1.322462425E0,2.952832210E-1,8.532580412E0
1.934702458E0,-8.103331068E0,1.164061646E0,-1.882634054E-1,8.188678588E0
1.944654458E0,-7.331763480E0,9.783066409E-1,-4.053079391E-1,7.407841395E0
1.954606458E0,-6.741834970E0,8.351361039E-1,-3.832966805E-1,6.804168385E0
1.964558458E0,-6.471071463E0,9.132033764E-1,-7.751636249E-1,6.581001818E0
1.974510458E0,-6.159966846E0,8.849260222E-1,-5.174119270E-1,6.244677790E0
1.984462458E0,-5.767297663E0,9.005539486E-1,-1.663568302E-1,5.839554293E0
1.994414458E0,-5.291905582E0,9.587388606E-1,-3.760642594E-1,5.391184398E0
2.004366458E0,-4.633776317E0,9.315175867E-1,-6.809638113E-1,4.775282158E0
2.014318458E0,-3.933485704E0,8.870281693E-1,-6.078724096E-1,4.077822657E0
2.024270458E0,-3.543078809E0,8.435384797E-1,-4.757908978E-1,3.673056165E0
2.034222458E0,-3.154730719E0,9.607625820E-1,-2.360257469E-1,3.306221227E0
2.044174458E0,-2.496426623E0,9.903270545E-1,4.024000822E-1,2.715661869E0
2.054126458E0,-2.113080826E0,7.833004640E-1,9.044058019E-1,2.428295708E0
2.064078458E0,-1.673494754E0,5.773936884E-1,5.873726928E-1,1.865201020E0
2.074030458E0,-8.676735932E-1,2.583245789E-1,3.233949162E-1,9.613393387E-1
2.083982458E0,-4.219672412E-1,-7.143923432E-2,1.142434476E-1,4.429576528E-1
2.093934458E0,1.950894266E-1,-2.555759490E-1,3.570660710E-2,3.235025686E-1
2.103886458E0,6.482813841E-1,-4.255698569E-1,3.919505596E-2,7.764758261E-1
2.113838458E0,7.563817835E-1,-2.970827747E-1,-6.284649510E-2,8.150590527E-1
2.123790458E0,7.340009809E-1,-9.952070676E-2,2.077515721E-3,7.407200058E-1
2.133742458E0,6.180185348E-1,7.574702427E-3,3.017227596E-1,6.877796952E-1
2.143694458E0,3.433461642E-1,1.073418693E-1,1.476246536E-1,3.888468898E-1
2.153646458E0,1.345736682E-1,6.908697255E-2,-5.143919863E-2,1.597781998E-1
2.163598458E0,2.729462725E-1,-4.629898444E-3,2.629755273E-1,3.790477959E-1
2.173550458E0,1.493542600E-1,3.377731830E-2,2.011933351E-1,2.528366276E-1
2.183502458E0,6.142675459E-2,1.089643255E-1,-1.568919788E-1,2.006528430E-1
2.193454458E0,2.221766531E-2,1.017004026E-1,-1.054528532E-1,1.481786111E-1
2.203406458E0,3.417738479E-1,1.170433503E-1,-8.139850438E-2,3.703163857E-1
2.213358458E0,7.202997851E-1,1.374475016E-1,-1.779097954E-1,7.545697393E-1
2.223310333E0,6.070339555E-1,1.373546771E-1,-1.290953388E-1,6.356273569E-1
2.233262333E0,3.911202550E-1,1.455010910E-1,-4.809392615E-1,6.367481407E-1
2.243214333E0,2.387868387E-1,1.045031923E-1,-5.926726822E-1,6.474573188E-1
2.253166333E0,1.584952122E-1,5.629940428E-2,-4.458344791E-1,4.765068079E-1
2.263118333E0,2.363608289E-1,6.287964150E-2,-3.147550339E-1,3.986113672E-1
2.273070333E0,1.532227778E-1,9.845322445E-3,-2.803413192E-1,3.196332356E-1
2.283022333E0,2.599964440E-2,8.822571337E-3,-2.751314501E-1,2.764979821E-1
2.292974333E0,-9.405538738E-2,8.837335557E-4,-2.479173390E-1,2.651607132E-1
2.302926333E0,-2.206739187E-1,-2.994878076E-2,-5.822079934E-2,2.301816008E-1
2.312878333E0,-3.953442836E-1,5.050203614E-2,-9.098676860E-2,4.088106533E-1
2.322830333E0,-4.083221787E-1,2.558310337E-2,-3.326445901E-1,5.272892187E-1
2.332782333E0,-3.012649226E-1,-5.494168080E-2,-2.600513347E-1,4.017534550E-1
2.342734333E0,-4.721363515E-1,-1.150337353E-1,-3.735780233E-1,6.129486391E-1
2.352686333E0,-4.824929398E-1,-1.249915436E-1,-4.324599966E-1,6.598817861E-1
2.362638333E0,-2.714751130E-1,-2.311694515E-1,-1.430831212E-1,3.842015511E-1
2.372590333E0,-1.080682397E-2,-2.224639707E-1,2.124047863E-1,3.077706922E-1
2.382542333E0,8.791990399E-2,-1.439699976E-1,4.195394772E-1,4.521843017E-1
2.392493333E0,2.572657943E-2,1.179156817E-2,6.451011566E-1,6.457216120E-1
2.402445333E0,1.650955492E-1,-2.647253796E-2,6.004393926E-1,6.232854882E-1
2.412397333E0,5.525636333E-1,-3.528505209E-1,4.388743190E-1,7.889491282E-1
2.422349333E0,1.909402424E-1,-4.111618790E-1,2.784436785E-2,4.541889208E-1
2.432301333E0,-1.260887736E-1,-1.841395652E-1,-1.645530007E-1,2.772786474E-1
2.446061667E0,9.698630422E-2,-1.204467221E-1,7.547059715E-2,1.720743070E-1
2.456013667E0,5.553111669E-2,-1.572860080E-1,1.542477947E-1,2.271892942E-1
2.465965667E0,1.082558257E-1,-8.389744903E-2,1.810046536E-1,2.269819164E-1
2.475917667E0,1.812131068E-1,8.773206219E-2,8.806959271E-2,2.197529476E-1
2.485869667E0,7.976515777E-2,1.716205303E-1,1.438122690E-2,1.897970139E-1
2.495821667E0,-3.067840364E-2,1.724644662E-1,2.788595617E-2,1.773775158E-1
2.505773667E0,-8.654500432E-2,1.187908089E-1,8.857362270E-2,1.716000603E-1
2.515725667E0,-1.729450708E-1,2.201892394E-2,1.859970063E-1,2.549308080E-1
2.525677667E0,-9.866957143E-2,-6.075742199E-2,2.903054863E-1,3.125770690E-1
2.535629667E0,4.937279262E-3,-4.560610309E-2,1.811905950E-1,1.869072633E-1
2.545581667E0,2.746872079E-2,-2.490000697E-2,5.860430360E-2,6.934699250E-2
2.555533667E0,1.076125954E-1,6.905085229E-2,-6.930587769E-2,1.454365689E-1
2.565485667E0,1.408749567E-1,1.255690110E-1,-2.020154536E-1,2.764481388E-1
2.575437667E0,9.837753955E-2,1.248325633E-1,-1.258198017E-1,2.027114492E-1
2.585389667E0,7.688927785E-2,9.336140511E-2,-7.695520520E-3,1.211921369E-1
2.595341667E0,2.055193976E-2,-4.909182477E-2,1.578280449E-1,1.665595426E-1
2.605293667E0,-8.860161625E-2,-1.471647518E-1,2.842296445E-1,3.321057082E-1
2.615245667E0,-3.722257085E-2,-3.382823019E-2,3.654369450E-1,3.688821352E-1
2.625197667E0,-8.426839091E-2,7.830054902E-2,4.299855280E-1,4.451063828E-1
2.635149667E0,-1.194553998E-1,6.703971617E-2,5.551948804E-1,5.718437473E-1
2.645101667E0,-1.558334135E-2,-7.873010924E-3,7.305803597E-1,7.307889482E-1
2.655053667E0,1.877732442E-1,-1.062090627E-1,1.106169240E0,1.127009115E0
2.665005667E0,9.127649814E-2,-2.879169170E-1,1.658340526E0,1.685621799E0
2.674957667E0,2.986626193E-2,-4.282403534E-1,2.591712849E0,2.627024417E0
2.684909667E0,1.898951988E-1,-5.008139475E-1,3.700975851E0,3.739531662E0
2.694861667E0,3.781153165E-1,-6.219280563E-1,4.554827796E0,4.612615522E0
2.704813667E0,4.139097780E-1,-5.798237547E-1,5.438981182E0,5.485438286E0
2.714765667E0,2.752865475E-1,-4.434010507E-1,6.288428419E0,6.310049062E0
2.724717667E0,4.070235121E-1,-2.342820706E-1,7.558084055E0,7.572660749E0
2.734669667E0,7.180051915E-2,2.126516485E-1,8.964955716E0,8.967764885E0
2.744621667E0,-3.881212181E-1,6.831668960E-1,9.271966113E0,9.305198047E0
2.754573667E0,-4.716298364E-1,7.781589342E-1,9.327700603E0,9.371977623E0
2.764525667E0,1.726588496E-1,5.074427897E-1,9.745518075E0,9.760247529E0
2.774477667E0,1.211563037E0,5.644490859E-2,1.038135717E1,1.045196860E1
2.784429667E0,1.729169603E0,-4.923146907E-1,1.081007736E1,1.095856623E1
2.794381667E0,1.473956474E0,-1.301768252E0,1.203467143E1,1.219428000E1
2.804333667E0,1.024381238E0,-2.672140716E0,1.310967501E1,1.341839304E1
2.814285667E0,5.358365766E-1,-3.662025794E0,1.296948918E1,1.348722371E1
2.824237667E0,1.688427374E0,-1.976251886E0,1.329340388E1,1.354514471E1
2.834189667E0,2.682675644E0,-6.235913698E-1,1.200036231E1,1.231236412E1
2.844141667E0,2.104339238E0,-1.024398999E0,9.527303495E0,9.810563125E0
2.854093667E0,1.506608495E0,-1.077664649E0,7.016033716E0,7.256442610E0
2.864045667E0,1.684236528E0,-9.344748160E-1,3.503331192E0,3.997902613E0
2.873997667E0,2.720999173E0,-3.860365030E-1,-1.579239392E-1,2.752780531E0
2.883949667E0,2.381241445E0,-1.858837165E-1,-3.123482614E0,3.932048730E0
2.893901667E0,1.773241529E0,1.162419163E-1,-5.074896113E0,5.377031548E0
2.903853667E0,1.592259095E0,4.551903165E-1,-6.327924607E0,6.541033334E0
2.913805667E0,1.779970797E0,3.047940827E-1,-6.797762418E0,7.033546002E0
2.923757667E0,1.172820628E0,5.763641399E-1,-5.932558104E0,6.074779791E0
2.933709667E0,-1.436995639E-1,1.246715255E0,-5.701263303E0,5.837752285E0
2.943661667E0,-1.168724946E0,1.373632579E0,-6.182242983E0,6.439946643E0
2.953613667E0,-1.575266502E0,1.020922318E0,-6.552542472E0,6.816124983E0
2.963565667E0,-1.639783510E0,4.718225022E-1,-7.396835389E0,7.591092162E0
2.973517667E0,-1.431543987E0,8.429776586E-1,-7.703460454E0,7.880560417E0
2.983469667E0,-1.402742065E0,1.015561737E0,-7.436389464E0,7.635374202E0
2.993421667E0,-1.804420637E0,8.168040595E-1,-7.027626990E0,7.301413823E0
3.003373667E0,-2.036932244E0,1.156984907E0,-7.392165803E0,7.754471116E0
3.013325667E0,-2.364814423E0,1.157717782E0,-8.191319969E0,8.604090919E0
3.023277667E0,-2.279004341E0,1.048166250E0,-8.610243734E0,8.968211106E0
3.033229667E0,-1.464963456E0,1.212252131E0,-8.414247989E0,8.626426976E0
3.043181667E0,-8.288934702E-1,1.243831847E0,-7.619620737E0,7.764843993E0
3.053133667E0,-7.332010087E-1,1.127393683E0,-6.987848967E0,7.116082730E0
3.063085667E0,-8.398048863E-1,1.120918257E0,-6.941709173E0,7.081599835E0
3.073037667E0,-9.901296379E-1,8.967000487E-1,-6.984886767E0,7.111474589E0
3.082989667E0,-5.371100271E-1,8.204329146E-1,-6.758477315E0,6.829246881E0
3.092941667E0,-1.723597280E-1,6.940161122E-1,-6.239230531E0,6.280076740E0
3.102892667E0,-1.641082834E-1,3.841599488E-1,-5.305132568E0,5.321554469E0
3.112845667E0,-2.703897967E-1,3.650377263E-1,-4.238078277E0,4.262355061E0
3.122796667E0,-4.416939195E-1,3.551769453E-1,-3.521358157E0,3.566680173E0
3.132748667E0,-5.706885400E-1,3.745279035E-1,-3.075079948E0,3.149932260E0
3.142700667E0,-6.679618695E-1,5.218827081E-1,-2.707181325E0,2.836787857E0
3.152652667E0,-4.801052293E-1,7.417413788E-1,-2.509667058E0,2.660659701E0
3.162604417E0,-4.501267374E-1,7.833829828E-1,-2.460493729E0,2.621131886E0
3.172556417E0,-4.494925338E-1,6.373125923E-1,-2.398345428E0,2.521957904E0
3.182508417E0,-2.597509340E-1,1.463843495E-1,-1.897378210E0,1.920662125E0
3.192460417E0,1.148101159E-1,-3.429390884E-1,-1.235279855E0,1.287130491E0
3.202412417E0,5.514780977E-1,-5.395229537E-1,-7.394809914E-1,1.068665170E0
3.212364417E0,5.440515491E-1,-5.464015451E-1,-1.753767085E-1,7.907614852E-1
3.222316417E0,2.125124848E-1,-3.697005519E-1,7.502445459E-2,4.329765849E-1
3.232268417E0,-6.776199348E-2,-2.345880627E-1,1.079939801E-1,2.669942821E-1
3.242220417E0,-1.079062353E-1,8.423380097E-2,-5.729452729E-2,1.483972766E-1
3.252172417E0,-1.421816633E-1,4.216042753E-1,-3.803596240E-1,5.853539390E-1
3.262124417E0,-2.051365511E-1,5.569192974E-1,-5.536120391E-1,8.116196142E-1
3.272076417E0,-1.297945196E-1,5.090857843E-1,-6.963431579E-1,8.723008349E-1
3.282028417E0,3.678918254E-2,3.077800365E-1,-7.647140658E-1,8.251482274E-1
3.291980417E0,2.300917732E-1,1.705261873E-1,-6.875085998E-1,7.447747843E-1
3.301932417E0,3.682017643E-1,3.799009100E-2,-6.646395546E-1,7.607637766E-1
3.311884417E0,3.821034830E-1,-1.572774564E-1,-5.043141639E-1,6.519754949E-1
3.321836417E0,1.151868227E-1,-1.067396061E-1,-1.408902399E0,1.417627355E0
3.331788417E0,-1.423737443E-1,-4.572574900E-1,-5.798946887E-1,7.520854640E-1
3.341740417E0,-4.283941352E-1,-5.387267457E-1,1.549310419E0,1.695320269E0
3.351692417E0,-7.121025735E-1,-3.706772196E-1,1.490167587E0,1.692658002E0
3.361644417E0,-8.164951073E-1,-1.793809549E-1,1.189454057E0,1.453837247E0
3.371596417E0,-5.812373191E-1,-1.276980735E-2,9.495229179E-1,1.113370406E0
3.381548417E0,-3.351123710E-1,7.893266045E-3,3.947841203E-1,5.178968106E-1
3.391500417E0,-3.348247245E-1,1.539520718E-2,-3.981193721E-2,3.375345892E-1
3.401452417E0,-3.154504505E-1,-4.393036874E-2,-2.754611599E-1,4.210911002E-1
3.411404417E0,8.606333993E-3,-8.461757932E-2,-4.035338938E-1,4.124000572E-1