"Time (s)","Linear Acceleration x (m/s^2)","Linear Acceleration y (m/s^2)","Linear Acceleration z (m/s^2)","Absolute acceleration (m/s^2)"
1.947708341E-3,2.275573341E-1,1.573520815E0,-1.536362929E0,2.210918621E0
1.189870834E-2,2.671363328E-1,1.572410429E0,-2.111762279E0,2.646389295E0
2.185070833E-2,4.510234445E-1,1.560354494E0,-2.179674765E0,2.718291812E0
3.180270834E-2,3.701496911E-1,1.495830908E0,-1.838771567E0,2.399083528E0
4.175370834E-2,1.540003479E-1,1.349742464E0,-1.344987069E0,1.911677547E0
5.170570833E-2,-4.469154831E-2,1.210777756E0,-6.980856282E-1,1.398321727E0
6.165770834E-2,-1.569941954E-1,1.134354866E0,-2.682059348E-2,1.145481333E0
7.160970834E-2,1.870980918E-1,1.157736566E0,6.311092812E-1,1.331787737E0
8.156070834E-2,4.925854168E-1,1.212095060E0,1.148078574E0,1.740660576E0
9.151270834E-2,6.874502738E-1,1.308584059E0,1.435408412E0,2.060431369E0
1.014647083E-1,6.495737650E-1,1.340083741E0,1.336720861E0,2.001147962E0
1.114167083E-1,6.529329903E-1,1.381147713E0,1.197831947E0,1.941311894E0
1.213677083E-1,8.391875665E-1,1.520944260E0,8.842720842E-1,1.949216338E0
1.313197083E-1,8.361727421E-1,1.719929248E0,1.399928677E-1,1.917534739E0
1.412717083E-1,6.156680272E-1,1.856231792E0,-8.677876139E-1,2.139555778E0
1.512237083E-1,4.143538009E-1,2.012891124E0,-1.605471756E0,2.607864895E0
1.611747083E-1,3.068205449E-1,2.132398272E0,-1.894737023E0,2.869022416E0
1.711267083E-1,1.279613079E-1,2.193031121E0,-1.962289320E0,2.945562590E0
1.810787083E-1,-1.766033082E-1,2.159192992E0,-1.821203608E0,2.830209477E0
1.910307083E-1,-2.710880639E-1,2.081028290E0,-1.561015375E0,2.615518397E0
2.009817083E-1,-1.686321645E-1,2.030300478E0,-1.341362380E0,2.439223211E0
2.109337083E-1,-4.199240047E-2,2.009042195E0,-1.281489231E0,2.383323006E0
2.208857083E-1,1.026384056E-1,2.012492491E0,-1.293840305E0,2.394719900E0
2.308377083E-1,2.941907419E-1,2.032311189E0,-1.333538806E0,2.448502136E0
2.407887083E-1,3.618341465E-1,2.019649044E0,-1.330759040E0,2.445572700E0
2.507407083E-1,2.721836859E-1,2.001847634E0,-1.300704351E0,2.402771258E0
2.606927083E-1,1.611766722E-1,1.969707390E0,-1.220817352E0,2.322955043E0
2.706437083E-1,-3.948924400E-2,1.896936160E0,-1.091261764E0,2.188784694E0
2.805957083E-1,-1.505019953E-1,1.770823705E0,-7.644176120E-1,1.934632196E0
2.905477083E-1,-9.933081843E-2,1.652804089E0,-3.879493099E-1,1.700627130E0
3.004997083E-1,-1.238538947E-1,1.491116151E0,-8.734278381E-2,1.498798161E0
3.104507083E-1,-2.323567652E-1,1.287835360E0,1.360319638E-1,1.315680157E0
3.204027083E-1,-2.065190887E-1,1.093098448E0,4.210726172E-1,1.189460592E0
3.303547083E-1,-3.261025060E-2,1.068898942E0,6.219735914E-1,1.237117426E0
3.403067083E-1,-1.498312466E-3,1.202701070E0,5.642756063E-1,1.328495039E0
3.502577083E-1,-8.977888003E-3,1.328365628E0,4.276788014E-1,1.395544697E0
3.602097083E-1,-3.951292522E-2,1.373539023E0,3.294923562E-1,1.413059069E0
3.701617083E-1,-1.962477966E-1,1.371234782E0,4.031953400E-1,1.442693490E0
3.801137083E-1,-4.559042981E-1,1.258712279E0,8.457038498E-1,1.583483607E0
3.900647083E-1,-8.556870934E-1,7.795651896E-1,1.814822541E0,2.152557350E0
4.000167083E-1,-1.135075463E0,5.845096037E-3,3.067865068E0,3.271120076E0
4.099687083E-1,-1.045551814E0,-7.121693780E-1,4.354814429E0,4.534839857E0
4.199207083E-1,-5.247142588E-1,-1.206814878E0,5.222486268E0,5.385730222E0
4.298717083E-1,3.052559945E-2,-1.419094973E0,5.229642676E0,5.418849035E0
4.398237083E-1,6.607175347E-1,-1.178223821E0,3.978138551E0,4.201231411E0
4.497757083E-1,1.067958783E0,-5.882752836E-1,2.183663151E0,2.500997506E0
4.597267083E-1,1.077324049E0,5.034986235E-2,5.287391531E-1,1.201135840E0
4.696787083E-1,8.791502157E-1,5.725953171E-1,-8.562364393E-1,1.354219827E0
4.796307083E-1,5.370658806E-1,8.821546613E-1,-1.381598825E0,1.724949831E0
4.895827083E-1,5.694580483E-2,9.360993187E-1,-1.191205882E0,1.516079224E0
4.995337083E-1,-3.725671494E-1,7.165252613E-1,-5.401383001E-1,9.715781564E-1
5.094857083E-1,-5.688044210E-1,3.537415635E-1,2.744899374E-1,7.238896938E-1
5.194377083E-1,-4.273758060E-1,6.178153440E-2,1.054395654E0,1.139393362E0
5.293897083E-1,-5.590045972E-2,-5.848523967E-2,1.606606700E0,1.608642432E0
5.393407083E-1,3.866468427E-1,-1.129633825E-1,1.778489113E0,1.823535037E0
5.492927083E-1,5.788750074E-1,-1.242682430E-1,1.400304653E0,1.520326278E0
5.592447083E-1,5.305464544E-1,-1.040188967E-1,6.116959405E-1,8.163769930E-1
5.691967083E-1,4.242795957E-1,-1.118864715E-3,-2.954083514E-1,5.169918000E-1
5.791477083E-1,2.094960889E-1,9.078306623E-2,-1.154860759E0,1.177214318E0
5.890997083E-1,-7.954652673E-2,1.710140278E-1,-1.825678482E0,1.835395153E0
5.990517083E-1,-2.290007924E-1,3.066893115E-1,-2.259455345E0,2.291645294E0
6.090037083E-1,-2.922457569E-1,3.748837797E-1,-2.496950533E0,2.541792162E0
6.189547083E-1,-3.294925755E-1,3.248335140E-1,-2.474175044E0,2.517066609E0
6.289067083E-1,-2.881278005E-1,3.022925708E-1,-1.914208251E0,1.959232415E0
6.388587083E-1,-1.761426207E-1,4.622566766E-1,-1.318523156E0,1.408265164E0
6.488107083E-1,4.925071372E-2,6.457922975E-1,-1.067220937E0,1.248372482E0
6.587617083E-1,2.111787166E-1,7.519896474E-1,-1.038896440E0,1.299765630E0
6.687137083E-1,2.595716072E-1,9.420450599E-1,-1.244327837E0,1.582143508E0
6.786657083E-1,2.409062716E-1,1.067382978E0,-1.610905573E0,1.947398013E0
6.886167083E-1,2.372437036E-1,1.157525409E0,-1.999654198E0,2.322663677E0
6.985687083E-1,2.065488547E-1,1.186509472E0,-2.430396940E0,2.712433675E0
7.085207083E-1,1.348542250E-1,1.180152598E0,-2.726290026E0,2.973819618E0
7.184727083E-1,1.020744965E-1,1.159055406E0,-2.631606063E0,2.877356270E0
7.284237083E-1,1.136307142E-1,1.173204717E0,-2.313460228E0,2.596424364E0
7.383757083E-1,6.238352353E-2,1.117686428E0,-1.999072984E0,2.291158539E0
7.483277083E-1,-1.462662723E-3,1.084353644E0,-1.675167643E0,1.995497832E0
7.582797083E-1,-4.733684694E-2,1.156720320E0,-1.387436101E0,1.806992421E0
7.682307083E-1,-4.975987829E-2,1.180914564E0,-1.448338945E0,1.869417276E0
7.781827083E-1,2.453678981E-2,1.210401780E0,-1.712983341E0,2.097614466E0
7.881347083E-1,2.126967086E-1,1.274751777E0,-1.859975910E0,2.264893456E0
7.980867083E-1,3.290119343E-1,1.322678480E0,-1.791593893E0,2.251118808E0
8.080377083E-1,4.075120835E-1,1.254584730E0,-1.420810254E0,1.938749783E0
8.179897083E-1,4.889376313E-1,1.121178166E0,-7.770054978E-1,1.449081789E0
8.279417083E-1,4.157062254E-1,1.022736928E0,2.086286545E-2,1.104190993E0
8.378937083E-1,2.722278507E-1,8.635866087E-1,7.988547885E-1,1.207501059E0
8.478447083E-1,1.363986573E-1,6.479803987E-1,1.271201640E0,1.433330667E0
8.577967083E-1,5.431591453E-2,4.980011445E-1,1.640248656E0,1.715042568E0
8.677487083E-1,-2.383598046E-2,5.650408606E-1,1.885743420E0,1.968722320E0
8.777007083E-1,-2.922795063E-1,7.147385714E-1,1.807373773E0,1.965420691E0
8.876517083E-1,-5.554391478E-1,8.268136156E-1,1.519807123E0,1.817126053E0
8.976037083E-1,-6.816682546E-1,9.850033839E-1,1.196070766E0,1.692775399E0
9.075557083E-1,-7.408331600E-1,1.129816111E0,7.846799684E-1,1.562383074E0
9.175077083E-1,-8.212696512E-1,9.940108734E-1,6.889166093E-1,1.461898612E0
9.274587083E-1,-8.043891782E-1,5.749096450E-1,1.212747025E0,1.564710323E0
9.374102083E-1,-6.195381530E-1,1.174223229E-2,2.155192473E0,2.242503065E0
9.473622083E-1,-3.567240455E-1,-6.193593013E-1,3.298323133E0,3.374876809E0
9.573132083E-1,6.623490175E-2,-1.218466187E0,4.512064769E0,4.674160394E0
9.672652083E-1,5.818804397E-1,-1.592272251E0,5.486064717E0,5.742022452E0
9.772172083E-1,1.009443649E0,-1.640015206E0,5.846474226E0,6.155476198E0
9.871692083E-1,1.156794287E0,-1.396441690E0,5.362066907E0,5.660387260E0
9.971202083E-1,9.656406216E-1,-1.016778762E0,4.102330488E0,4.335368069E0
1.007072208E0,5.661944797E-1,-7.162210599E-1,2.583584635E0,2.740156631E0
1.017024208E0,1.775436135E-1,-5.416515595E-1,1.344588874E0,1.460420277E0
1.026976208E0,-7.658710470E-2,-5.279594269E-1,5.950372231E-1,7.991720953E-1
1.036927208E0,-2.441413716E-1,-5.762270227E-1,2.782730860E-1,6.848930583E-1
1.046879208E0,-2.754016280E-1,-6.474752723E-1,2.858282733E-1,7.594524915E-1
1.056831208E0,-1.691057159E-1,-7.657073615E-1,4.761136276E-1,9.173814327E-1
1.066783208E0,3.295084178E-3,-8.457868072E-1,7.054279768E-1,1.101360437E0
1.076734208E0,1.587085808E-1,-9.221806066E-1,7.343430430E-1,1.189481059E0
1.086686208E0,2.633374334E-1,-9.096181561E-1,4.920806193E-1,1.067190297E0
1.096638208E0,4.041136087E-1,-7.576803770E-1,-5.648936570E-2,8.605686555E-1
1.106590208E0,4.285424352E-1,-6.056638066E-1,-7.616875470E-1,1.063318007E0
1.116541208E0,3.378296086E-1,-4.914836917E-1,-1.521550763E0,1.634258788E0
1.126493208E0,1.812043360E-1,-4.009321752E-1,-2.193302286E0,2.236997214E0
1.136445208E0,5.654752722E-2,-3.767529883E-1,-2.585755706E0,2.613670409E0
1.146397208E0,-6.385842886E-2,-2.960532262E-1,-2.622311913E0,2.639743393E0
1.156348208E0,-1.647123191E-1,-2.449601828E-1,-2.487113762E0,2.504569925E0
1.166300208E0,-2.863975911E-1,-2.737496068E-1,-2.310799745E0,2.344516558E0
1.176252208E0,-2.898198020E-1,-2.925240661E-1,-2.151450840E0,2.190503723E0
1.186203208E0,-2.018337514E-1,-2.619596466E-1,-2.104071436E0,2.129900544E0
1.196155208E0,-1.453510003E-1,-2.260336228E-1,-2.270406595E0,2.286255501E0
1.206107208E0,-1.774730815E-1,-1.990008485E-1,-2.563652061E0,2.577481314E0
1.216059208E0,-1.612380314E-1,-1.300373983E-1,-2.791535597E0,2.799210320E0
1.226011208E0,-1.282325273E-1,9.761853442E-3,-2.967946093E0,2.970731036E0
1.235962208E0,-1.546445101E-1,2.180084655E-1,-3.223477018E0,3.234539643E0
1.245914208E0,-1.780993000E-1,3.881448262E-1,-3.421442690E0,3.447991568E0
1.255866208E0,-1.683746860E-1,5.298298781E-1,-3.383007773E0,3.428383194E0
1.265817208E0,-7.527630514E-2,7.016326223E-1,-3.170763785E0,3.248337704E0
1.275769208E0,4.233850082E-2,8.036093058E-1,-3.002051733E0,3.108037173E0
1.285721208E0,7.849086676E-2,8.483826055E-1,-2.905266865E0,3.027621082E0
1.295673208E0,8.243245656E-2,9.406933299E-1,-2.774347122E0,2.930648563E0
1.305624208E0,-1.193555586E-2,1.092233279E0,-2.496264655E0,2.724784986E0
1.315576208E0,-1.696834756E-1,1.258731575E0,-1.997494821E0,2.367104396E0
1.325528208E0,-2.271380704E-1,1.487794787E0,-1.474068448E0,2.106656787E0
1.335480208E0,-2.101091329E-1,1.609736715E0,-1.059167567E0,1.938358603E0
1.345431208E0,-2.627640042E-1,1.678888519E0,-7.095876861E-1,1.841528241E0
1.355383208E0,-3.430843551E-1,1.659490673E0,-4.761668372E-1,1.760213347E0
1.365335208E0,-3.461175252E-1,1.529345101E0,-2.945230830E-1,1.595442768E0
1.375287208E0,-4.013552944E-1,1.374270656E0,-9.158376932E-2,1.434605693E0
1.385238208E0,-6.036328494E-1,1.100071325E0,2.562080330E-1,1.280692037E0
1.395190208E0,-7.764555672E-1,7.587472746E-1,8.127045035E-1,1.356122887E0
1.405142208E0,-8.065752328E-1,4.956092678E-1,1.552412367E0,1.818289391E0
1.415094208E0,-6.859842306E-1,3.238323976E-1,2.091485304E0,2.224803938E0
1.425045208E0,-5.972827732E-1,3.594939812E-1,2.244267202E0,2.350046363E0
1.434997208E0,-5.126576656E-1,5.868239316E-1,2.053232235E0,2.196119946E0
1.444949208E0,-4.891284332E-1,8.223132330E-1,1.673704085E0,1.927882528E0
1.454901208E0,-4.570290466E-1,9.667485228E-1,1.542482625E0,1.876893951E0
1.464852208E0,-3.877861361E-1,9.446293831E-1,1.921855239E0,2.176288198E0
1.474804208E0,-4.239578526E-1,5.717661819E-1,3.000698687E0,3.083966510E0
1.484756208E0,-5.055267668E-1,-2.364654940E-1,4.538260295E0,4.572447895E0
1.494707208E0,-6.287381621E-1,-1.105219945E0,5.795214610E0,5.933071310E0
1.504659208E0,-5.457147531E-1,-1.659549730E0,6.121997366E0,6.366377435E0
1.514611208E0,-1.946356462E-1,-1.593148749E0,5.332601033E0,5.568899330E0
1.524563208E0,2.576958022E-1,-1.215738460E0,3.745555608E0,3.946341843E0
1.534514208E0,6.157224794E-1,-8.751947205E-1,2.011698292E0,2.278598251E0
1.544466208E0,7.786072695E-1,-5.730044760E-1,6.279283959E-1,1.152760808E0
1.554418208E0,5.817330533E-1,-4.568305336E-1,-1.373002249E-1,7.523023551E-1
1.564370208E0,2.285734157E-1,-5.687221214E-1,-2.606770599E-1,6.660654527E-1
1.574321208E0,-1.949494589E-2,-7.215158598E-1,1.634969205E-1,7.400651538E-1
1.584273208E0,-2.617727367E-1,-8.145742969E-1,6.535894865E-1,1.076677978E0
1.594225208E0,-3.811002470E-1,-9.511746101E-1,9.438938034E-1,1.393164042E0
1.604177208E0,-2.615869963E-1,-1.027840086E0,1.012063567E0,1.465999885E0
1.614128208E0,-3.506136686E-2,-9.882224223E-1,9.039052802E-1,1.339722961E0
1.624080208E0,1.527380985E-1,-8.982542387E-1,6.788746011E-1,1.136248357E0
1.634032208E0,2.498585049E-1,-8.618791486E-1,2.748097801E-1,9.385016540E-1
1.643984208E0,2.999953459E-1,-8.127290618E-1,-2.819106388E-1,9.110429978E-1
1.653935208E0,3.762310878E-1,-6.560673903E-1,-9.675715184E-1,1.228075281E0
1.663887208E0,4.739717559E-1,-4.767645688E-1,-1.699319567E0,1.827468377E0
1.673839208E0,4.933341527E-1,-3.849789975E-1,-2.239481841E0,2.325266937E0
1.683791208E0,4.732630368E-1,-2.716986229E-1,-2.599420064E0,2.656084094E0
1.693742208E0,4.411176033E-1,-1.351567818E-1,-2.735676561E0,2.774306822E0
1.703694208E0,4.936933910E-1,-4.006877616E-2,-2.677908409E0,2.723331070E0
1.713646208E0,4.850051229E-1,-2.317931302E-2,-2.415635059E0,2.463952108E0
1.723598208E0,4.578259124E-1,-3.138259113E-2,-2.181925943E0,2.229661466E0
1.733549208E0,4.770566373E-1,-2.805888757E-2,-2.018288689E0,2.074092469E0
1.743501208E0,4.390043465E-1,7.156772688E-2,-1.936441703E0,1.986870209E0
1.753453208E0,4.421069522E-1,2.094604940E-1,-2.130767484E0,2.186207292E0
1.763405208E0,3.868886981E-1,3.545534494E-1,-2.601418642E0,2.653821766E0
1.773356208E0,3.194498364E-1,4.861828984E-1,-3.128966718E0,3.182586170E0
1.783308208E0,2.719949122E-1,5.649698900E-1,-3.648900549E0,3.702384019E0
1.793260208E0,2.789711339E-1,7.220319497E-1,-3.988087004E0,4.062510674E0
1.803212208E0,2.536618812E-1,8.549097792E-1,-4.069125904E0,4.165693304E0
1.813163208E0,1.169064706E-1,9.161629446E-1,-3.917277807E0,4.024684718E0
1.823115208E0,5.864806635E-2,9.704789733E-1,-3.568877310E0,3.698939616E0
1.833067208E0,1.396692609E-1,1.079161902E0,-2.987202728E0,3.179226015E0
1.843018208E0,2.564309398E-1,1.156686991E0,-2.239211115E0,2.533327464E0
1.852970208E0,3.471648346E-1,1.176242419E0,-1.336243728E0,1.813730121E0
1.862922208E0,2.530718789E-1,1.122568634E0,-5.884573513E-1,1.292473508E0
1.872874208E0,1.292966018E-1,9.916124187E-1,-1.752995253E-1,1.015255004E0
1.882825208E0,5.002614588E-2,8.089046174E-1,1.981592149E-1,8.343238997E-1
1.892777208E0,-2.497537667E-3,7.924694829E-1,5.972702748E-1,9.923436401E-1
1.902729208E0,-3.522016444E-2,7.547298720E-1,8.726010418E-1,1.154248768E0
1.912681208E0,-8.028172273E-2,6.099355631E-1,1.220671756E0,1.366933094E0
1.922632208E0,-1.954097992E-1,4.457575882E-1,1.714151614E0,1.781909250E0
1.932584208E0,-3.334037780E-1,3.791769516E-1,2.246505516E0,2.302546476E0
1.942536542E0,-6.158343074E-1,3.801997758E-1,2.655169757E0,2.752041097E0
1.952488542E0,-9.323842902E-1,4.715380351E-1,2.818241000E0,3.005689758E0
1.962439542E0,-1.103177513E0,5.956620712E-1,2.687941647E0,2.965947441E0
1.972391542E0,-1.090166946E0,5.913971852E-1,2.382917549E0,2.686356389E0
1.982343542E0,-8.754747290E-1,4.385071870E-1,2.322824544E0,2.520765443E0
1.992295542E0,-6.106368270E-1,1.224852077E-1,2.583043767E0,2.657065122E0
2.002246542E0,-2.912327451E-1,-4.042215995E-1,3.107847160E0,3.147526899E0
2.012198542E0,1.918803102E-2,-9.991436324E-1,3.950063145E0,4.074512858E0
2.022150542E0,2.983935012E-1,-1.481139778E0,4.883523762E0,5.111909433E0
2.032102542E0,5.164908078E-1,-1.746244934E0,5.583605044E0,5.873055373E0
2.042053542E0,6.507991221E-1,-1.793692751E0,5.781766598E0,6.088488990E0
2.052005542E0,7.545730204E-1,-1.663704469E0,5.155597045E0,5.469686818E0
2.061957542E0,7.962054882E-1,-1.445090817E0,3.981766164E0,4.310068727E0
2.071909542E0,6.843679141E-1,-1.097053577E0,2.665367886E0,2.962443579E0
2.081860542E0,4.493870281E-1,-7.461226974E-1,1.368051996E0,1.621793466E0
2.091812542E0,1.497527294E-1,-5.351482862E-1,3.567859894E-1,6.603830786E-1
2.101764542E0,-1.347857851E-1,-4.527942006E-1,-1.704100835E-1,5.022244444E-1
2.111716542E0,-2.864606497E-1,-4.129778780E-1,-2.336605847E-1,5.542632050E-1
2.121667542E0,-2.755378498E-1,-4.496160927E-1,-7.345330775E-2,5.324200653E-1
2.131619542E0,-1.112308890E-1,-5.302233957E-1,-4.226075113E-2,5.434106469E-1
2.141571542E0,1.002447748E-1,-6.472997097E-1,-2.939582419E-1,7.179536037E-1
2.151523542E0,2.019284032E-1,-6.908858784E-1,-8.342497391E-1,1.101848903E0
2.161474542E0,2.897375024E-1,-7.209126464E-1,-1.383148922E0,1.586431154E0
2.171426542E0,3.633503661E-1,-7.625524233E-1,-1.840661387E0,2.025226908E0
2.181378542E0,3.727746159E-1,-9.110299663E-1,-2.196304831E0,2.406801077E0
2.191330542E0,2.822858839E-1,-1.031119935E0,-2.313389477E0,2.548463167E0
2.201281542E0,2.020069020E-1,-1.015622694E0,-2.184224483E0,2.417257297E0
2.211233542E0,-1.051900026E-1,-9.552841064E-1,-2.002878937E0,2.221521257E0
2.221185542E0,-2.959027335E-1,-8.035031057E-1,-1.899821177E0,2.083865680E0
2.231137542E0,-3.837094208E-1,-5.702116996E-1,-1.923667291E0,2.042760424E0
2.241088542E0,-3.359284230E-1,-3.638201167E-1,-1.978335834E0,2.039368936E0
2.251040542E0,-2.921990888E-1,-1.769424467E-1,-2.077118111E0,2.105019853E0
2.260992542E0,-2.835817182E-1,-2.519185156E-2,-2.233138781E0,2.251213459E0
2.270944542E0,-2.235247835E-1,5.163829632E-2,-2.476724430E0,2.487326626E0
2.280895542E0,-9.690267077E-2,9.398595169E-2,-2.741617332E0,2.744938812E0
2.290847542E0,3.746047944E-2,1.462475612E-1,-2.928729402E0,2.932617866E0
2.300799542E0,1.458442860E-1,2.151150439E-1,-3.066635984E0,3.077629168E0
2.310751542E0,1.915086649E-1,3.185308734E-1,-3.094669290E0,3.116908003E0
2.320702542E0,2.990948016E-1,4.563236531E-1,-3.046607516E0,3.095077759E0
2.330654542E0,4.342419355E-1,5.814280479E-1,-2.910526435E0,2.999631438E0
2.340606542E0,5.472021751E-1,7.995851058E-1,-2.721342697E0,2.888680085E0
2.350558542E0,5.626424059E-1,9.939542285E-1,-2.583949501E0,2.825120618E0
2.360509542E0,6.094687361E-1,1.071457610E0,-2.444880493E0,2.738049338E0
2.370461542E0,7.319244884E-1,1.184047940E0,-2.187720534E0,2.593029910E0
2.380413542E0,7.593768735E-1,1.295929515E0,-1.915964754E0,2.434544615E0
2.390365542E0,7.180131584E-1,1.351509638E0,-1.552369682E0,2.179902023E0
2.400316542E0,4.912737036E-1,1.382478685E0,-1.172085487E0,1.877866224E0
2.410268542E0,3.432994596E-1,1.425994687E0,-6.571902019E-1,1.607238106E0
2.420220542E0,2.241315418E-1,1.464382828E0,-6.435445547E-3,1.481449773E0
2.430172542E0,5.501725607E-2,1.376808348E0,4.180425900E-1,1.439926294E0
2.440123542E0,-1.018155014E-1,1.165494652E0,7.916147661E-1,1.412585614E0
2.450075542E0,-1.181929677E-1,9.244385089E-1,1.296306660E0,1.596548493E0
2.460027542E0,-9.994060993E-2,6.120662154E-1,1.878758921E0,1.978471193E0
2.469979542E0,-1.421964640E-1,2.822866148E-1,2.376628869E0,2.397555077E0
2.479930542E0,-2.639318759E-1,1.265968966E-1,2.623041061E0,2.639324008E0
2.489882542E0,-3.205928574E-1,1.981403576E-1,2.539755660E0,2.567566590E0
2.499834542E0,-2.892992901E-1,2.528510003E-1,2.394887969E0,2.425513573E0
2.509786542E0,-1.843430483E-1,2.361390732E-1,2.462357821E0,2.480514072E0
2.519737542E0,-2.023433727E-1,3.304846287E-2,2.821735296E0,2.829173930E0
2.529689542E0,-4.161774013E-1,-3.456240933E-1,3.270940622E0,3.315375122E0
2.539641542E0,-8.051494624E-1,-8.105043425E-1,3.682195179E0,3.855352680E0
2.549593542E0,-1.030231085E0,-1.379756660E0,3.828398375E0,4.197825467E0
2.559544542E0,-1.097658984E0,-1.654872834E0,4.171113040E0,4.619701650E0
2.569496542E0,-7.520647842E-1,-1.651444758E0,4.218567873E0,4.592296389E0
2.579448542E0,-4.876199247E-1,-1.695092907E0,3.739997245E0,4.135056535E0
2.589400542E0,-2.983449328E-1,-1.619083635E0,2.904680974E0,3.338804139E0
2.599351542E0,-2.119845908E-2,-1.279513749E0,1.990233749E0,2.366143525E0
2.609303542E0,1.908810759E-1,-9.135034847E-1,1.131528615E0,1.466724653E0
2.619255542E0,1.820873386E-1,-7.026692605E-1,2.869304734E-1,7.805312198E-1
2.629207542E0,4.136020683E-2,-6.158603275E-1,-3.434859127E-1,7.063831693E-1
2.639158542E0,-1.048836999E-1,-5.326657046E-1,-5.842298144E-1,7.975323313E-1
2.649110542E0,-2.169886745E-1,-4.690373272E-1,-5.071769607E-1,7.240915471E-1
2.659062542E0,-2.541190786E-1,-5.670118108E-1,1.132313311E-2,6.214556405E-1
2.669014542E0,-1.675101935E-1,-6.972132236E-1,8.438111061E-1,1.107331534E0
2.678965542E0,-1.295790497E-2,-8.757594153E-1,1.454917647E0,1.698207237E0
2.688917542E0,2.478561625E-1,-1.128243795E0,1.598432878E0,1.972144620E0
2.698869542E0,5.705616189E-1,-1.285530388E0,1.476692094E0,2.039300978E0
2.708821542E0,8.502043055E-1,-1.210009651E0,9.955475217E-1,1.782718594E0
2.718772542E0,8.478269738E-1,-1.089877509E0,1.240504342E-1,1.386373713E0
2.728724542E0,7.510033683E-1,-9.689963387E-1,-9.155190200E-1,1.530076808E0
2.738676542E0,6.182698920E-1,-7.351171412E-1,-1.947124566E0,2.171163040E0
2.748628542E0,4.375016121E-1,-4.808430018E-1,-2.821359320E0,2.895286871E0
2.758579542E0,2.509189340E-1,-2.848297150E-1,-3.431329163E0,3.452261303E0
2.768531542E0,5.545608960E-3,-1.719634695E-1,-3.689248676E0,3.693258450E0
2.778483542E0,-2.404679862E-1,-2.802862823E-2,-3.592410598E0,3.600558896E0
2.788435542E0,-3.412101763E-1,1.391306958E-1,-3.279553571E0,3.300189897E0
2.798386542E0,-2.000842279E-1,2.213788737E-1,-2.832411143E0,2.848086232E0
2.808338542E0,2.094224140E-2,3.014103721E-1,-2.498925723E0,2.517124661E0
2.818290542E0,2.272497340E-1,4.518850317E-1,-2.423813560E0,2.476028008E0
2.828242542E0,3.697017213E-1,6.018816814E-1,-2.531014073E0,2.627731561E0
2.838193542E0,4.045088805E-1,6.906495778E-1,-2.698946691E0,2.815126554E0
2.848145542E0,4.225394643E-1,7.041167387E-1,-2.867351180E0,2.982620118E0
2.858097542E0,3.477482771E-1,7.108551431E-1,-3.051268331E0,3.152218636E0
2.868049542E0,2.464575085E-1,6.875760620E-1,-3.069187124E0,3.154902811E0
2.878000542E0,1.676552410E-1,7.075872074E-1,-2.864266773E0,2.955133176E0
2.887952542E0,1.184356637E-1,6.566738927E-1,-2.434177750E0,2.523978789E0
2.897904542E0,1.583621515E-2,6.036219589E-1,-1.883468853E0,1.977894127E0
2.907856542E0,-3.355369885E-3,5.371331236E-1,-1.453839421E0,1.549894291E0
2.917807542E0,2.034244864E-1,3.601224107E-1,-1.089223425E0,1.165108296E0
2.927759542E0,5.634670825E-1,2.455418345E-1,-7.334109968E-1,9.569104638E-1
2.937711542E0,7.469741251E-1,1.842353864E-1,-3.657135183E-1,8.518564425E-1
2.947662917E0,6.774611829E-1,2.117803037E-2,2.130409634E-1,7.104847749E-1
2.957613917E0,4.554714214E-1,-1.711013706E-1,1.063869313E0,1.169849482E0
2.967565917E0,2.211437425E-1,-3.626869994E-1,2.094443995E0,2.137087285E0
2.977517917E0,-1.389837388E-1,-6.544914195E-1,3.125854245E0,3.196660798E0
2.987469917E0,-5.813347483E-1,-1.099626937E0,3.420180861E0,3.639336013E0
2.997420917E0,-8.973926514E-1,-1.038381592E0,2.992993226E0,3.292652176E0
3.007372917E0,-1.018428773E0,-4.336268815E-1,2.182705377E0,2.447331649E0
3.017324917E0,-9.508112787E-1,1.700289913E-1,1.548539756E0,1.825082826E0
3.027276917E0,-9.229080733E-1,5.320641723E-1,1.380986037E0,1.744125578E0
3.037227917E0,-8.654470465E-1,5.229410541E-1,1.541291547E0,1.843378846E0
3.047179917E0,-7.031254895E-1,1.595330930E-1,2.009048919E0,2.134505521E0
3.057131917E0,-4.899190864E-1,-3.932138506E-1,2.712379500E0,2.784176789E0
3.067083917E0,-1.832117948E-1,-7.561780080E-1,3.390703293E0,3.478827470E0
3.077034917E0,2.840741817E-1,-8.272934528E-1,3.829763115E0,3.928383652E0
3.086986917E0,6.866878700E-1,-8.960467686E-1,4.061307008E0,4.215288205E0
3.096938917E0,9.795253468E-1,-1.029864977E0,4.298641983E0,4.527517495E0
3.106890917E0,9.321424348E-1,-1.123557252E0,4.539186494E0,4.768174121E0
3.116841917E0,5.562838146E-1,-1.196843475E0,4.526441318E0,4.714929161E0
3.126793917E0,1.059198722E-1,-1.263967172E0,4.285685138E0,4.469443940E0
3.136745917E0,-2.666242081E-1,-1.246991097E0,3.720048884E0,3.932535946E0
3.146697917E0,-4.801611068E-1,-1.126530269E0,2.901011261E0,3.148887339E0
3.156648917E0,-5.820884179E-1,-1.040465686E0,2.046965774E0,2.368853024E0
3.166600917E0,-5.996455599E-1,-9.212187396E-1,1.174638382E0,1.608724368E0
3.176552917E0,-5.039124602E-1,-8.358322880E-1,1.548863107E-1,9.881969188E-1
3.186504917E0,-3.415063378E-1,-9.130861397E-1,-5.705362201E-1,1.129541702E0
3.196455917E0,-3.068318374E-1,-1.045815011E0,-9.283671069E-1,1.431691412E0
3.206407917E0,-3.397929209E-1,-1.200176388E0,-1.040893264E0,1.624604992E0
3.216359917E0,-3.170571557E-1,-1.337126073E0,-1.172215880E0,1.806245123E0
3.226311917E0,-2.490244179E-1,-1.329325156E0,-1.572143796E0,2.073826089E0
3.236262917E0,-1.133294182E-1,-1.352498841E0,-2.249494613E0,2.627227186E0
3.246214917E0,-2.564407887E-2,-1.367430437E0,-3.056419728E0,3.348466093E0
3.256166917E0,-1.544198856E-1,-1.254852094E0,-3.750218178E0,3.957604788E0
3.266118917E0,-8.178789239E-2,-1.133798212E0,-4.301915254E0,4.449568799E0
3.276070917E0,-2.288951770E-1,-1.037340203E0,-4.567261316E0,4.689173021E0
3.286021917E0,-5.256206138E-1,-9.577407409E-1,-4.474581778E0,4.606020674E0
3.295973917E0,-2.968916256E-1,-7.631723012E-1,-4.068699642E0,4.150288349E0
3.305925917E0,-4.368505977E-2,-6.441226982E-1,-3.282348540E0,3.345237566E0
3.315877917E0,2.431628583E-1,-6.866275705E-1,-2.305358911E0,2.417698349E0
3.325828917E0,5.893677628E-1,-6.833640933E-1,-1.518961031E0,1.766800344E0
3.335780917E0,7.097888303E-1,-6.854582736E-1,-1.012364114E0,1.413695274E0
3.345732917E0,7.059408507E-1,-7.764630224E-1,-5.056338805E-1,1.164866057E0
3.355684917E0,8.349650728E-1,-7.761212526E-1,-7.422104716E-2,1.142383314E0
3.365635917E0,8.827967586E-1,-7.207748714E-1,6.567300260E-2,1.141560106E0
3.375587917E0,3.174582747E-1,-5.788139771E-1,-7.726803124E-2,6.646621134E-1
3.385539917E0,5.118519558E-1,-5.441654237E-1,-5.701614136E-1,9.397832040E-1
3.395491917E0,5.297319007E-1,-6.711369807E-1,-1.882291224E0,2.067380223E0
3.405442917E0,-2.695529871E-3,-5.990650776E-1,-4.018748049E0,4.063154207E0
3.415394917E0,-8.542230968E-1,-3.972884828E-1,-2.172893749E0,2.368333271E0
3.425346917E0,-3.428512340E-1,-2.831936641E-1,-1.395100631E0,1.464257966E0
3.435298917E0,-1.206752021E-1,-2.791240020E-1,-8.085307610E-1,8.638256215E-1
3.445249917E0,4.861583401E-2,-3.693459548E-1,6.871355474E-2,3.788159002E-1
3.455201917E0,1.921077121E-2,-4.649774592E-1,8.482678539E-1,9.675388587E-1
3.465153917E0,-5.462103412E-3,-3.361372782E-1,1.157793138E0,1.205613145E0
3.475105917E0,-4.005744718E-3,-4.412661226E-1,1.204596591E-1,4.574301766E-1